vp,bl,tr,prime_type,resp,respac,rt,TrialNr
1,2,4,1,2,1,466,4
1,2,5,2,1,1,576,5
1,2,15,1,1,1,523,15
1,2,17,2,2,1,573,17
1,3,7,1,2,1,444,29
1,3,9,2,2,1,623,31
1,3,11,2,1,1,497,33
1,3,19,1,1,1,411,41
1,4,4,2,1,1,436,48
1,4,9,2,2,1,439,53
1,4,13,1,2,1,307,57
1,4,14,1,1,1,329,58
1,5,7,2,1,0,260,73
1,5,8,1,2,1,383,74
1,5,18,2,1,1,579,84
1,5,19,1,1,1,481,85
1,6,4,1,1,1,476,92
1,6,5,1,2,1,457,93
1,6,9,2,2,0,318,97
1,6,20,2,2,1,438,108
1,7,9,1,1,1,206,119
1,7,15,2,1,1,478,125
1,7,17,1,2,1,424,127
1,7,22,2,2,1,571,132
1,8,1,0,2,0,175,133
1,8,2,0,2,1,545,134
1,8,3,0,1,1,423,135
1,8,4,0,2,1,412,136
1,8,5,0,1,1,305,137
1,8,6,0,2,1,262,138
1,8,7,0,1,0,212,139
1,8,8,0,1,1,369,140
1,8,9,0,2,1,316,141
1,8,10,0,2,0,306,142
1,8,11,0,1,1,317,143
1,8,12,0,2,1,442,144
1,8,13,0,2,1,464,145
1,8,14,0,2,1,340,146
1,8,15,0,1,1,266,147
1,8,16,0,1,1,389,148
1,8,17,0,2,1,277,149
1,8,18,0,1,1,274,150
1,8,19,0,2,1,215,151
1,8,20,0,1,1,268,152
1,8,21,0,1,0,321,153
1,8,22,0,1,1,374,154
1,9,9,1,1,1,342,163
1,9,15,2,1,1,406,169
1,9,17,1,2,1,378,171
1,9,22,2,2,1,435,176
1,10,7,2,2,1,515,183
1,10,10,2,2,0,651,186
1,10,14,1,1,1,270,190
1,10,20,1,2,1,358,196
1,11,1,2,1,1,531,199
1,11,6,1,1,1,430,204
1,11,16,1,2,1,330,214
1,11,18,2,2,1,509,216
1,12,5,1,1,1,381,225
1,12,6,1,2,1,356,226
1,12,12,2,2,1,488,232
1,12,16,2,1,1,411,236
1,13,1,2,1,1,496,243
1,13,4,1,1,1,391,246
1,13,15,2,2,1,418,257
1,13,21,1,2,1,305,263
1,14,11,2,1,1,350,275
1,14,12,1,2,1,299,276
1,14,16,1,1,1,280,280
1,14,22,2,1,0,224,286
1,15,1,0,2,1,268,287
1,15,2,0,1,1,386,288
1,15,3,0,1,0,359,289
1,15,4,0,2,1,306,290
1,15,5,0,2,1,352,291
1,15,6,0,1,1,325,292
1,15,7,0,2,1,266,293
1,15,8,0,2,1,295,294
1,15,9,0,2,1,332,295
1,15,10,0,2,1,290,296
1,15,11,0,1,1,328,297
1,15,12,0,2,0,261,298
1,15,13,0,1,1,432,299
1,15,14,0,2,1,477,300
1,15,15,0,1,1,410,301
1,15,16,0,2,1,351,302
1,15,17,0,1,1,373,303
1,15,18,0,1,1,387,304
1,15,19,0,1,1,376,305
1,15,20,0,1,1,332,306
1,15,21,0,2,1,314,307
1,15,22,0,1,1,336,308
1,16,9,2,2,1,430,317
1,16,11,1,1,1,393,319
1,16,15,1,2,1,286,323
1,16,18,2,1,1,310,326
1,17,4,2,1,1,336,334
1,17,9,1,1,1,402,339
1,17,17,2,2,1,389,347
1,17,18,1,2,1,322,348
1,18,6,2,2,0,249,358
1,18,12,1,1,1,311,364
1,18,13,1,2,1,300,365
1,18,21,2,1,0,236,373
1,19,6,2,1,1,349,380
1,19,11,1,1,1,407,385
1,19,12,2,2,1,412,386
1,19,22,1,2,1,295,396
1,20,3,1,2,1,246,399
1,20,9,2,1,0,281,405
1,20,19,2,2,0,269,415
1,20,21,1,1,1,359,417
1,21,3,2,1,1,426,421
1,21,6,2,1,0,297,424
1,21,14,1,1,1,306,432
1,21,20,1,2,1,256,438
1,22,1,0,1,1,293,441
1,22,2,0,2,1,366,442
1,22,3,0,2,1,434,443
1,22,4,0,1,1,320,444
1,22,5,0,1,1,342,445
1,22,6,0,1,0,323,446
1,22,7,0,1,1,285,447
1,22,8,0,1,1,383,448
1,22,9,0,2,1,361,449
1,22,10,0,1,1,350,450
1,22,11,0,2,1,348,451
1,22,12,0,1,1,280,452
1,22,13,0,2,1,341,453
1,22,14,0,1,1,267,454
1,22,15,0,2,1,296,455
1,22,16,0,1,1,301,456
1,22,17,0,2,1,315,457
1,22,18,0,1,1,272,458
1,22,19,0,2,1,229,459
1,22,20,0,2,1,370,460
1,22,21,0,2,1,356,461
1,22,22,0,1,1,325,462
1,23,12,2,2,1,357,474
1,23,13,2,1,1,368,475
1,23,18,1,2,1,327,480
1,23,21,1,1,1,320,483
1,24,9,2,2,1,435,493
1,24,11,2,1,1,543,495
1,24,12,1,2,1,339,496
1,24,16,1,1,1,353,500
1,25,12,2,2,1,383,518
1,25,15,1,1,1,271,521
1,25,18,2,1,1,390,524
1,25,19,1,2,1,275,525
1,26,9,2,2,1,509,537
1,26,10,1,2,1,290,538
1,26,11,2,1,1,439,539
1,26,18,1,1,1,357,546
1,27,2,1,2,1,265,552
1,27,7,1,1,1,250,557
1,27,13,2,2,0,257,563
1,27,20,2,1,0,261,570
1,28,5,2,1,1,372,577
1,28,11,1,1,1,372,583
1,28,14,2,1,0,228,586
1,28,22,1,2,1,338,594
1,29,1,0,2,1,353,595
1,29,2,0,1,1,406,596
1,29,3,0,1,1,347,597
1,29,4,0,2,1,320,598
1,29,5,0,1,1,294,599
1,29,6,0,1,0,339,600
1,29,7,0,2,1,318,601
1,29,8,0,2,1,371,602
1,29,9,0,1,1,345,603
1,29,10,0,1,1,574,604
1,29,11,0,2,1,283,605
1,29,12,0,1,1,304,606
1,29,13,0,2,1,294,607
1,29,14,0,2,1,331,608
1,29,15,0,2,1,320,609
1,29,16,0,1,1,318,610
1,29,17,0,1,1,323,611
1,29,18,0,1,1,329,612
1,29,19,0,1,1,302,613
1,29,20,0,1,1,427,614
1,29,21,0,2,1,400,615
1,29,22,0,2,1,421,616
1,30,1,1,2,1,350,617
1,30,6,2,1,1,408,622
1,30,12,1,1,1,328,628
1,30,22,2,2,1,397,638
1,31,10,2,2,0,240,648
1,31,16,1,1,1,283,654
1,31,18,1,2,1,283,656
1,31,19,2,1,0,248,657
1,32,5,1,2,1,295,665
1,32,7,2,1,1,441,667
1,32,12,2,2,1,499,672
1,32,21,1,1,1,387,681
1,33,6,2,1,0,242,688
1,33,7,2,1,1,380,689
1,33,10,1,1,1,421,692
1,33,16,1,2,1,391,698
1,34,2,2,1,0,217,706
1,34,4,2,1,1,371,708
1,34,9,1,2,1,369,713
1,34,21,1,1,1,276,725
1,35,2,2,2,0,216,728
1,35,7,1,2,1,408,733
1,35,12,2,2,1,489,738
1,35,15,1,1,1,376,741
1,36,1,0,1,1,310,749
1,36,2,0,1,0,298,750
1,36,3,0,2,1,415,751
1,36,4,0,1,1,266,752
1,36,5,0,2,1,351,753
1,36,6,0,1,1,356,754
1,36,7,0,2,1,298,755
1,36,8,0,1,1,279,756
1,36,9,0,1,1,372,757
1,36,10,0,2,1,377,758
1,36,11,0,2,1,401,759
1,36,12,0,1,1,348,760
1,36,13,0,2,1,354,761
1,36,14,0,1,1,271,762
1,36,15,0,1,1,364,763
1,36,16,0,1,1,370,764
1,36,17,0,1,0,353,765
1,36,18,0,2,1,301,766
1,36,19,0,1,1,319,767
1,36,20,0,2,1,316,768
1,36,21,0,1,1,329,769
1,37,2,2,1,1,333,772
1,37,4,1,1,1,254,774
1,37,10,2,2,1,515,780
1,37,20,1,2,1,336,790
1,38,7,2,1,1,468,799
1,38,11,1,1,1,298,803
1,38,18,2,2,1,415,810
1,38,19,1,2,1,367,811
1,39,8,2,1,0,241,822
1,39,9,1,1,1,309,823
1,39,14,2,1,1,424,828
1,39,17,1,2,1,484,831
1,40,2,1,1,1,253,838
1,40,6,2,2,1,407,842
1,40,9,1,2,1,314,845
1,40,14,2,2,0,234,850
1,41,4,2,1,1,400,862
1,41,6,1,2,1,314,864
1,41,7,1,1,1,239,865
1,41,21,2,2,1,417,879
1,42,7,2,1,1,461,887
1,42,10,1,2,1,429,890
1,42,11,2,2,1,398,891
1,42,21,1,1,1,303,901
1,43,1,0,1,1,283,903
1,43,2,0,1,1,383,904
1,43,3,0,1,1,378,905
1,43,4,0,1,1,394,906
1,43,5,0,1,0,357,907
1,43,6,0,2,1,371,908
1,43,7,0,2,1,366,909
1,43,8,0,2,1,397,910
1,43,9,0,1,1,356,911
1,43,10,0,1,1,367,912
1,43,11,0,1,0,349,913
1,43,12,0,1,1,320,914
1,43,13,0,2,1,293,915
1,43,14,0,2,1,390,916
1,43,15,0,1,1,336,917
1,43,16,0,2,1,317,918
1,43,17,0,2,1,338,919
1,43,18,0,2,1,375,920
1,43,19,0,1,1,389,921
1,43,20,0,1,1,427,922
1,43,21,0,1,1,384,923
1,43,22,0,2,1,365,924
1,44,4,1,2,1,363,928
1,44,8,2,2,1,544,932
1,44,12,1,1,1,349,936
1,44,13,2,1,1,451,937
1,45,1,1,1,1,301,947
1,45,13,2,2,1,399,959
1,45,20,1,2,1,348,966
1,45,22,2,1,1,379,968
1,46,5,1,2,1,347,973
1,46,8,2,1,1,395,976
1,46,18,1,1,1,250,986
1,46,21,2,2,1,395,989
1,47,1,1,2,1,230,991
1,47,2,2,1,1,331,992
1,47,13,1,1,1,324,1003
1,47,21,2,1,0,269,1011
1,48,2,1,1,1,281,1014
1,48,8,1,2,1,232,1020
1,48,15,2,2,1,395,1027
1,48,16,2,1,1,377,1028
1,49,2,1,1,1,218,1036
1,49,6,1,2,1,247,1040
1,49,7,2,2,0,240,1041
1,49,11,2,2,1,480,1045
1,50,1,0,1,1,374,1057
1,50,2,0,1,1,364,1058
1,50,3,0,1,0,337,1059
1,50,4,0,1,1,358,1060
1,50,5,0,2,1,297,1061
1,50,6,0,2,1,381,1062
1,50,7,0,2,1,384,1063
1,50,8,0,2,1,394,1064
1,50,9,0,1,1,384,1065
1,50,10,0,1,1,443,1066
1,50,11,0,1,1,392,1067
1,50,12,0,2,1,366,1068
1,50,13,0,2,1,356,1069
1,50,14,0,1,1,321,1070
1,50,15,0,1,1,366,1071
1,50,16,0,1,1,415,1072
1,50,17,0,2,1,408,1073
1,50,18,0,2,1,383,1074
1,50,19,0,1,1,299,1075
1,50,20,0,2,1,320,1076
1,50,21,0,2,1,342,1077
1,50,22,0,1,1,294,1078
1,51,6,2,2,1,400,1084
1,51,9,1,2,1,344,1087
1,51,11,2,1,1,368,1089
1,51,13,1,1,1,401,1091
1,52,1,1,2,1,383,1101
1,52,4,2,2,1,397,1104
1,52,5,1,1,1,322,1105
1,52,10,2,1,1,418,1110
1,53,5,1,2,1,269,1127
1,53,8,2,1,1,400,1130
1,53,13,1,1,1,224,1135
1,53,14,2,1,0,274,1136
1,54,12,1,1,1,280,1156
1,54,14,2,1,1,351,1158
1,54,15,2,2,1,432,1159
1,54,16,1,2,1,461,1160
1,55,11,2,1,1,424,1177
1,55,16,1,2,1,489,1182
1,55,17,2,1,0,263,1183
1,55,22,1,1,1,352,1188
1,56,2,2,2,1,416,1190
1,56,4,2,1,1,379,1192
1,56,12,1,2,1,334,1200
1,56,19,1,1,1,280,1207
1,57,1,0,1,1,413,1211
1,57,2,0,2,1,304,1212
1,57,3,0,1,1,374,1213
1,57,4,0,1,1,332,1214
1,57,5,0,1,1,373,1215
1,57,6,0,1,1,354,1216
1,57,7,0,2,1,395,1217
1,57,8,0,2,1,385,1218
1,57,9,0,2,1,380,1219
1,57,10,0,2,1,365,1220
1,57,11,0,1,1,293,1221
1,57,12,0,2,1,394,1222
1,57,13,0,2,1,372,1223
1,57,14,0,1,1,356,1224
1,57,15,0,1,1,373,1225
1,57,16,0,1,0,307,1226
1,57,17,0,1,1,406,1227
1,57,18,0,2,1,347,1228
1,57,19,0,1,1,265,1229
1,57,20,0,2,1,422,1230
1,57,21,0,1,1,323,1231
1,57,22,0,2,1,328,1232
1,58,4,1,1,1,240,1236
1,58,12,2,2,1,392,1244
1,58,13,1,2,1,333,1245
1,58,17,2,1,1,474,1249
1,59,6,2,1,0,268,1260
1,59,7,1,2,1,399,1261
1,59,8,1,1,1,300,1262
1,59,22,2,1,1,400,1276
1,60,4,1,2,1,384,1280
1,60,6,1,1,1,313,1282
1,60,8,2,2,1,404,1284
1,60,19,2,1,1,444,1295
1,61,1,2,1,1,362,1299
1,61,5,2,2,1,532,1303
1,61,7,1,2,1,513,1305
1,61,12,1,1,1,285,1310
1,62,3,2,2,0,219,1323
1,62,8,1,2,1,328,1328
1,62,9,2,2,1,445,1329
1,62,18,1,1,1,413,1338
1,63,4,2,2,1,448,1346
1,63,17,2,1,1,456,1359
1,63,20,1,2,1,429,1362
1,63,22,1,1,1,263,1364
1,64,1,0,1,1,390,1365
1,64,2,0,2,1,349,1366
1,64,3,0,2,1,363,1367
1,64,4,0,2,1,362,1368
1,64,5,0,1,1,352,1369
1,64,6,0,2,1,289,1370
1,64,7,0,1,1,295,1371
1,64,8,0,1,1,340,1372
1,64,9,0,1,1,337,1373
1,64,10,0,1,1,337,1374
1,64,11,0,1,1,316,1375
1,64,12,0,2,1,355,1376
1,64,13,0,2,1,362,1377
1,64,14,0,2,1,357,1378
1,64,15,0,2,1,425,1379
1,64,16,0,1,1,270,1380
1,64,17,0,1,1,499,1381
1,64,18,0,2,1,387,1382
1,64,19,0,1,1,358,1383
1,64,20,0,1,1,387,1384
1,64,21,0,2,1,336,1385
1,64,22,0,2,1,372,1386
1,65,2,1,1,1,274,1388
1,65,3,1,2,1,240,1389
1,65,5,2,2,1,388,1391
1,65,22,2,1,1,416,1408
1,66,9,2,2,1,496,1417
1,66,14,2,1,1,418,1422
1,66,22,1,1,1,345,1430
1,67,6,1,2,1,427,1436
1,67,18,1,1,1,337,1448
1,67,19,2,2,1,430,1449
1,67,21,2,1,1,367,1451
1,68,2,2,1,1,337,1454
1,68,3,1,2,1,278,1455
1,68,18,2,2,1,476,1470
1,68,21,1,1,1,316,1473
1,69,8,1,1,1,287,1482
1,69,13,2,1,1,384,1487
1,69,17,2,2,1,442,1491
1,69,20,1,2,1,286,1494
1,70,9,2,2,1,395,1505
1,70,10,1,2,1,360,1506
1,70,20,2,1,1,347,1516
1,71,1,0,1,1,304,1519
1,71,2,0,1,1,382,1520
1,71,3,0,2,1,386,1521
1,71,4,0,1,1,332,1522
1,71,5,0,1,1,378,1523
1,71,6,0,1,1,335,1524
1,71,7,0,1,1,332,1525
1,71,8,0,1,0,321,1526
1,71,9,0,1,1,340,1527
1,71,10,0,2,1,371,1528
1,71,11,0,1,1,343,1529
1,71,12,0,2,1,389,1530
1,71,13,0,1,1,298,1531
1,71,14,0,1,1,430,1532
1,71,15,0,2,1,316,1533
1,71,16,0,2,1,389,1534
1,71,17,0,2,1,375,1535
1,71,18,0,2,1,380,1536
1,71,19,0,2,1,381,1537
1,71,20,0,1,1,330,1538
1,71,21,0,2,1,366,1539
1,71,22,0,2,1,345,1540
2,2,9,2,2,1,429,9
2,2,11,1,1,1,520,11
2,2,15,1,2,1,501,15
2,2,18,2,1,1,557,18
2,3,4,2,1,1,457,26
2,3,9,1,1,1,502,31
2,3,17,2,2,1,545,39
2,3,18,1,2,1,646,40
2,4,6,2,1,1,451,50
2,4,12,1,1,1,418,56
2,4,13,1,2,1,400,57
2,4,21,2,2,1,458,65
2,5,6,2,1,1,416,72
2,5,11,1,1,1,435,77
2,5,12,2,2,1,369,78
2,5,22,1,2,1,469,88
2,6,3,1,2,1,231,91
2,6,9,2,2,1,349,97
2,6,19,2,1,1,355,107
2,6,21,1,1,1,428,109
2,7,3,2,1,1,439,113
2,7,6,2,1,0,207,116
2,7,14,1,1,1,536,124
2,7,20,1,2,1,295,130
2,8,1,0,1,1,386,133
2,8,2,0,2,1,333,134
2,8,3,0,2,1,363,135
2,8,4,0,1,1,304,136
2,8,5,0,1,1,441,137
2,8,6,0,2,1,330,138
2,8,7,0,1,1,299,139
2,8,8,0,1,1,389,140
2,8,9,0,2,1,373,141
2,8,10,0,1,1,303,142
2,8,11,0,1,1,370,143
2,8,12,0,2,1,318,144
2,8,13,0,2,1,455,145
2,8,14,0,1,1,308,146
2,8,15,0,2,1,281,147
2,8,16,0,1,0,227,148
2,8,17,0,2,1,365,149
2,8,18,0,1,1,351,150
2,8,19,0,1,1,366,151
2,8,20,0,1,1,382,152
2,8,21,0,2,1,383,153
2,8,22,0,2,1,383,154
2,9,3,2,1,1,446,157
2,9,6,2,2,1,478,160
2,9,14,1,1,1,488,168
2,9,20,1,2,1,224,174
2,10,12,2,2,1,452,188
2,10,13,2,1,1,405,189
2,10,18,1,2,1,519,194
2,10,21,1,1,1,284,197
2,11,9,2,2,1,504,207
2,11,11,2,1,1,381,209
2,11,12,1,2,1,164,210
2,11,16,1,1,1,253,214
2,12,12,2,2,1,442,232
2,12,15,1,1,1,225,235
2,12,18,2,1,1,466,238
2,12,19,1,2,1,415,239
2,13,9,2,1,0,579,251
2,13,10,1,2,1,402,252
2,13,11,2,1,1,700,253
2,13,18,1,1,1,374,260
2,14,2,1,2,1,273,266
2,14,7,1,2,0,261,271
2,14,13,2,2,0,671,277
2,14,20,2,2,1,529,284
2,15,1,0,2,1,407,287
2,15,2,0,2,1,412,288
2,15,3,0,2,1,307,289
2,15,4,0,2,0,315,290
2,15,5,0,1,1,389,291
2,15,6,0,2,1,367,292
2,15,7,0,2,1,316,293
2,15,8,0,2,0,322,294
2,15,9,0,1,1,366,295
2,15,10,0,1,1,346,296
2,15,11,0,1,1,344,297
2,15,12,0,1,1,338,298
2,15,13,0,2,1,394,299
2,15,14,0,2,1,392,300
2,15,15,0,1,1,349,301
2,15,16,0,1,1,371,302
2,15,17,0,2,1,360,303
2,15,18,0,2,1,429,304
2,15,19,0,1,1,426,305
2,15,20,0,2,1,362,306
2,15,21,0,2,1,380,307
2,15,22,0,1,1,330,308
2,16,5,2,1,1,307,313
2,16,11,1,1,1,435,319
2,16,14,2,2,1,515,322
2,16,22,1,2,1,413,330
2,17,1,1,2,1,392,331
2,17,6,2,1,1,430,336
2,17,12,1,1,1,413,342
2,17,22,2,2,1,423,352
2,18,10,2,1,1,405,362
2,18,16,1,1,1,461,368
2,18,18,1,2,1,410,370
2,18,19,2,2,1,423,371
2,19,5,1,2,1,314,379
2,19,7,2,1,1,365,381
2,19,12,2,2,1,510,386
2,19,21,1,1,1,365,395
2,20,6,2,1,0,226,402
2,20,7,2,1,1,726,403
2,20,10,1,1,1,469,406
2,20,16,1,2,1,277,412
2,21,2,2,2,1,489,420
2,21,4,2,1,1,468,422
2,21,9,1,2,1,454,427
2,21,21,1,1,1,362,439
2,22,1,0,2,1,399,441
2,22,2,0,2,1,354,442
2,22,3,0,2,0,337,443
2,22,4,0,1,1,372,444
2,22,5,0,1,1,378,445
2,22,6,0,1,1,384,446
2,22,7,0,2,1,400,447
2,22,8,0,1,1,330,448
2,22,9,0,2,1,352,449
2,22,10,0,1,1,388,450
2,22,11,0,1,1,321,451
2,22,12,0,2,0,307,452
2,22,13,0,2,1,386,453
2,22,14,0,2,1,401,454
2,22,15,0,1,1,367,455
2,22,16,0,2,1,346,456
2,22,17,0,1,1,287,457
2,22,18,0,2,1,348,458
2,22,19,0,1,1,354,459
2,22,20,0,2,1,343,460
2,22,21,0,2,1,444,461
2,22,22,0,2,1,354,462
2,23,2,2,1,1,488,464
2,23,7,1,2,1,448,469
2,23,12,2,2,1,429,474
2,23,15,1,1,1,413,477
2,24,2,2,1,1,535,486
2,24,4,1,1,1,459,488
2,24,10,2,2,1,449,494
2,24,20,1,2,1,326,504
2,25,7,2,2,0,571,513
2,25,11,1,1,1,414,517
2,25,18,2,2,1,395,524
2,25,19,1,2,1,280,525
2,26,8,2,2,1,506,536
2,26,9,1,1,1,392,537
2,26,14,2,1,1,458,542
2,26,17,1,2,1,346,545
2,27,2,1,1,1,394,552
2,27,6,2,2,1,375,556
2,27,9,1,2,1,335,559
2,27,14,2,2,0,561,564
2,28,4,2,1,1,519,576
2,28,6,1,2,1,317,578
2,28,7,1,1,1,398,579
2,28,21,2,2,1,441,593
2,29,1,0,1,1,454,595
2,29,2,0,1,1,420,596
2,29,3,0,2,1,383,597
2,29,4,0,2,1,326,598
2,29,5,0,2,1,308,599
2,29,6,0,1,1,480,600
2,29,7,0,1,1,422,601
2,29,8,0,1,1,412,602
2,29,9,0,2,1,441,603
2,29,10,0,1,1,382,604
2,29,11,0,1,1,431,605
2,29,12,0,2,1,345,606
2,29,13,0,1,1,357,607
2,29,14,0,2,1,419,608
2,29,15,0,1,1,352,609
2,29,16,0,1,1,379,610
2,29,17,0,2,1,379,611
2,29,18,0,2,1,394,612
2,29,19,0,2,1,374,613
2,29,20,0,1,1,443,614
2,29,21,0,2,1,385,615
2,29,22,0,2,1,438,616
2,30,7,2,1,1,392,623
2,30,10,1,2,1,376,626
2,30,11,2,2,1,446,627
2,30,21,1,1,1,424,637
2,31,4,1,2,1,393,642
2,31,8,2,2,1,534,646
2,31,12,1,1,1,499,650
2,31,13,2,1,1,496,651
2,32,1,1,1,1,553,661
2,32,13,2,2,1,396,673
2,32,20,1,2,1,368,680
2,32,22,2,1,1,582,682
2,33,5,1,2,1,446,687
2,33,8,2,1,1,422,690
2,33,18,1,1,1,411,700
2,33,21,2,2,1,381,703
2,34,1,1,2,1,335,705
2,34,2,2,1,1,453,706
2,34,13,1,1,1,399,717
2,34,21,2,2,1,494,725
2,35,2,1,1,1,224,728
2,35,8,1,2,1,311,734
2,35,15,2,2,1,420,741
2,35,16,2,1,1,488,742
2,36,1,0,1,1,396,749
2,36,2,0,2,1,364,750
2,36,3,0,2,1,367,751
2,36,4,0,2,1,348,752
2,36,5,0,1,1,449,753
2,36,6,0,2,1,349,754
2,36,7,0,2,1,387,755
2,36,8,0,1,1,441,756
2,36,9,0,2,1,326,757
2,36,10,0,1,1,331,758
2,36,11,0,2,1,362,759
2,36,12,0,2,1,395,760
2,36,13,0,2,1,323,761
2,36,14,0,2,1,344,762
2,36,15,0,1,1,375,763
2,36,16,0,1,1,443,764
2,36,17,0,1,1,371,765
2,36,18,0,2,1,390,766
2,36,19,0,1,1,369,767
2,36,20,0,1,1,328,768
2,36,21,0,1,1,342,769
2,36,22,0,1,1,323,770
2,37,2,1,1,1,244,772
2,37,6,1,2,1,364,776
2,37,7,2,1,1,398,777
2,37,11,2,2,1,412,781
2,38,6,2,2,1,398,798
2,38,9,1,2,1,438,801
2,38,11,2,1,1,391,803
2,38,13,1,1,1,341,805
2,39,1,1,2,1,294,815
2,39,4,2,2,1,379,818
2,39,5,1,1,1,419,819
2,39,10,2,1,1,406,824
2,40,5,1,2,1,296,841
2,40,8,2,1,1,408,844
2,40,13,1,1,1,338,849
2,40,14,2,2,1,447,850
2,41,12,1,1,1,420,870
2,41,14,2,1,1,358,872
2,41,15,2,2,1,373,873
2,41,16,1,2,1,409,874
2,42,11,2,1,1,532,891
2,42,16,1,2,1,267,896
2,42,17,2,2,1,429,897
2,42,22,1,1,1,387,902
2,43,1,0,2,1,406,903
2,43,2,0,2,1,450,904
2,43,3,0,1,1,387,905
2,43,4,0,1,1,389,906
2,43,5,0,2,1,410,907
2,43,6,0,2,1,368,908
2,43,7,0,1,1,378,909
2,43,8,0,2,1,395,910
2,43,9,0,2,1,383,911
2,43,10,0,2,1,333,912
2,43,11,0,1,1,401,913
2,43,12,0,2,1,384,914
2,43,13,0,1,1,333,915
2,43,14,0,1,1,386,916
2,43,15,0,2,1,383,917
2,43,16,0,2,1,415,918
2,43,17,0,1,1,364,919
2,43,18,0,1,1,360,920
2,43,19,0,1,1,357,921
2,43,20,0,2,1,373,922
2,43,21,0,1,1,319,923
2,43,22,0,1,1,317,924
2,44,2,2,2,1,422,926
2,44,4,2,1,1,388,928
2,44,12,1,2,1,418,936
2,44,19,1,1,1,459,943
2,45,4,1,1,1,416,950
2,45,12,2,2,1,441,958
2,45,13,1,2,1,422,959
2,45,17,2,1,1,463,963
2,46,6,2,2,1,494,974
2,46,7,1,2,1,452,975
2,46,8,1,1,1,424,976
2,46,22,2,1,1,403,990
2,47,4,1,2,1,283,994
2,47,6,1,1,1,405,996
2,47,8,2,2,1,448,998
2,47,19,2,1,1,458,1009
2,48,1,2,1,1,413,1013
2,48,5,2,2,1,401,1017
2,48,7,1,2,1,436,1019
2,48,12,1,1,1,396,1024
2,49,3,2,1,1,423,1037
2,49,8,1,2,1,271,1042
2,49,9,2,2,1,391,1043
2,49,18,1,1,1,245,1052
2,50,1,0,2,1,465,1057
2,50,2,0,1,1,383,1058
2,50,3,0,1,1,435,1059
2,50,4,0,2,1,416,1060
2,50,5,0,1,1,334,1061
2,50,6,0,1,1,419,1062
2,50,7,0,2,1,392,1063
2,50,8,0,2,1,359,1064
2,50,9,0,2,1,347,1065
2,50,10,0,2,1,339,1066
2,50,11,0,2,0,342,1067
2,50,12,0,2,1,440,1068
2,50,13,0,1,1,486,1069
2,50,14,0,1,1,347,1070
2,50,15,0,1,1,392,1071
2,50,16,0,1,1,414,1072
2,50,17,0,1,1,364,1073
2,50,18,0,2,1,448,1074
2,50,19,0,2,1,565,1075
2,50,20,0,2,1,386,1076
2,50,21,0,1,1,423,1077
2,50,22,0,2,1,358,1078
2,51,4,2,2,1,441,1082
2,51,17,2,1,1,418,1095
2,51,20,1,2,1,243,1098
2,51,22,1,1,1,397,1100
2,52,2,1,1,1,217,1102
2,52,3,1,2,1,262,1103
2,52,5,2,1,0,193,1105
2,52,22,2,1,1,425,1122
2,53,9,2,2,1,405,1131
2,53,14,2,1,1,459,1136
2,53,17,1,2,1,423,1139
2,53,22,1,1,1,370,1144
2,54,6,1,2,1,400,1150
2,54,18,1,1,1,368,1162
2,54,19,2,2,1,437,1163
2,54,21,2,1,1,395,1165
2,55,2,2,1,1,454,1168
2,55,3,1,2,1,404,1169
2,55,18,2,2,1,491,1184
2,55,21,1,1,1,403,1187
2,56,8,1,1,1,344,1196
2,56,13,2,1,1,378,1201
2,56,17,2,2,1,396,1205
2,56,20,1,2,1,360,1208
2,57,1,0,2,1,512,1211
2,57,2,0,1,1,357,1212
2,57,3,0,2,1,410,1213
2,57,4,0,1,1,367,1214
2,57,5,0,2,1,341,1215
2,57,6,0,1,1,523,1216
2,57,7,0,2,1,396,1217
2,57,8,0,1,1,421,1218
2,57,9,0,2,1,314,1219
2,57,10,0,1,1,311,1220
2,57,11,0,1,1,340,1221
2,57,12,0,2,1,434,1222
2,57,13,0,1,1,335,1223
2,57,14,0,2,1,341,1224
2,57,15,0,2,1,410,1225
2,57,16,0,1,1,391,1226
2,57,17,0,1,1,364,1227
2,57,18,0,2,1,363,1228
2,57,19,0,1,1,375,1229
2,57,20,0,1,1,333,1230
2,57,21,0,1,0,329,1231
2,57,22,0,2,1,380,1232
2,58,9,2,2,1,366,1241
2,58,10,1,2,1,348,1242
2,58,15,1,1,1,366,1247
2,58,20,2,1,1,396,1252
2,59,12,2,2,1,419,1266
2,59,13,1,1,1,382,1267
2,59,14,1,2,1,431,1268
2,59,15,2,1,1,560,1269
2,60,1,2,1,1,402,1277
2,60,3,2,2,1,396,1279
2,60,9,1,1,1,403,1285
2,60,10,1,2,1,304,1286
2,61,2,1,2,1,244,1300
2,61,8,2,2,1,357,1306
2,61,20,2,1,1,383,1318
2,61,22,1,1,1,260,1320
2,62,12,1,2,1,358,1332
2,62,16,1,1,1,380,1336
2,62,21,2,2,0,189,1341
2,62,22,2,2,1,512,1342
2,63,2,1,1,1,365,1344
2,63,8,1,2,1,366,1350
2,63,11,2,1,0,236,1353
2,63,18,2,1,1,423,1360
2,64,1,0,1,1,583,1365
2,64,2,0,2,1,377,1366
2,64,3,0,2,1,371,1367
2,64,4,0,2,1,351,1368
2,64,5,0,1,1,332,1369
2,64,6,0,1,1,361,1370
2,64,7,0,2,1,334,1371
2,64,8,0,1,1,367,1372
2,64,9,0,1,1,345,1373
2,64,10,0,2,1,319,1374
2,64,11,0,1,1,347,1375
2,64,12,0,2,1,345,1376
2,64,13,0,2,1,390,1377
2,64,14,0,2,1,332,1378
2,64,15,0,1,1,472,1379
2,64,16,0,1,1,390,1380
2,64,17,0,2,1,356,1381
2,64,18,0,1,1,352,1382
2,64,19,0,2,1,342,1383
2,64,20,0,2,1,339,1384
2,64,21,0,1,1,411,1385
2,64,22,0,1,1,414,1386
2,65,5,2,1,1,536,1391
2,65,9,1,1,1,422,1395
2,65,10,2,2,1,387,1396
2,65,21,1,2,1,380,1407
2,66,5,2,1,1,458,1413
2,66,8,1,2,1,402,1416
2,66,10,2,2,1,388,1418
2,66,19,1,1,1,386,1427
2,67,1,1,1,1,372,1431
2,67,2,2,2,1,412,1432
2,67,9,2,1,1,465,1439
2,67,16,1,2,1,321,1446
2,68,1,2,2,1,380,1453
2,68,4,2,1,1,427,1456
2,68,9,1,1,1,479,1461
2,68,14,1,2,1,354,1466
2,69,1,1,2,1,269,1475
2,69,12,2,1,1,394,1486
2,69,14,2,2,1,363,1488
2,69,20,1,1,1,394,1494
2,70,6,1,1,1,394,1502
2,70,8,1,2,1,225,1504
2,70,9,2,2,0,218,1505
2,70,16,2,2,1,380,1512
2,71,1,0,2,1,476,1519
2,71,2,0,1,1,433,1520
2,71,3,0,1,1,399,1521
2,71,4,0,2,1,356,1522
2,71,5,0,2,1,393,1523
2,71,6,0,2,1,359,1524
2,71,7,0,1,1,534,1525
2,71,8,0,2,1,356,1526
2,71,9,0,2,1,398,1527
2,71,10,0,2,1,381,1528
2,71,11,0,1,1,369,1529
2,71,12,0,1,1,377,1530
2,71,13,0,2,1,387,1531
2,71,14,0,1,1,369,1532
2,71,15,0,1,1,438,1533
2,71,16,0,2,1,395,1534
2,71,17,0,1,1,385,1535
2,71,18,0,1,1,370,1536
2,71,19,0,1,1,347,1537
2,71,20,0,2,1,400,1538
2,71,21,0,2,1,367,1539
2,71,22,0,1,1,514,1540
3,2,9,2,2,1,463,9
3,2,10,1,2,1,428,10
3,2,11,2,1,1,466,11
3,2,18,1,1,1,559,18
3,3,2,1,2,1,239,24
3,3,7,1,1,1,449,29
3,3,13,2,1,1,601,35
3,3,20,2,2,1,374,42
3,4,5,2,1,1,594,49
3,4,11,1,1,1,290,55
3,4,14,2,2,1,614,58
3,4,22,1,2,1,181,66
3,5,1,1,2,1,194,67
3,5,6,2,1,1,414,72
3,5,12,1,1,1,200,78
3,5,22,2,2,1,449,88
3,6,10,2,1,1,648,98
3,6,16,1,1,1,603,104
3,6,18,1,2,1,296,106
3,6,19,2,2,1,625,107
3,7,5,1,2,1,505,115
3,7,7,2,1,1,435,117
3,7,12,2,1,0,233,122
3,7,21,1,1,1,455,131
3,8,1,0,2,1,453,133
3,8,2,0,1,1,402,134
3,8,3,0,1,1,399,135
3,8,4,0,2,1,309,136
3,8,5,0,2,1,410,137
3,8,6,0,2,1,319,138
3,8,7,0,1,1,311,139
3,8,8,0,2,1,242,140
3,8,9,0,2,1,367,141
3,8,10,0,2,1,332,142
3,8,11,0,1,1,418,143
3,8,12,0,1,1,410,144
3,8,13,0,2,1,268,145
3,8,14,0,1,1,221,146
3,8,15,0,1,1,438,147
3,8,16,0,2,1,292,148
3,8,17,0,1,1,265,149
3,8,18,0,1,1,382,150
3,8,19,0,1,1,428,151
3,8,20,0,2,1,340,152
3,8,21,0,1,0,263,153
3,8,22,0,1,1,330,154
3,9,5,1,2,1,277,159
3,9,7,2,1,1,673,161
3,9,12,2,2,1,443,166
3,9,21,1,1,1,467,175
3,10,6,2,2,1,533,182
3,10,16,1,2,1,190,192
3,11,2,2,1,0,193,200
3,11,4,2,2,0,180,202
3,11,9,1,2,1,274,207
3,11,21,1,1,1,341,219
3,12,2,2,2,0,132,222
3,12,7,1,2,1,312,227
3,12,12,2,2,1,412,232
3,12,15,1,1,1,348,235
3,13,2,2,2,0,223,244
3,13,4,1,1,1,277,246
3,13,10,2,2,1,573,252
3,13,20,1,2,1,293,262
3,14,7,2,2,0,219,271
3,14,11,1,1,1,369,275
3,14,18,2,2,1,527,282
3,14,19,1,2,1,345,283
3,15,1,0,1,1,494,287
3,15,2,0,2,1,459,288
3,15,3,0,1,1,288,289
3,15,4,0,1,1,488,290
3,15,5,0,2,1,399,291
3,15,6,0,1,1,264,292
3,15,7,0,2,0,280,293
3,15,8,0,2,1,437,294
3,15,9,0,2,1,558,295
3,15,10,0,2,1,387,296
3,15,11,0,2,1,441,297
3,15,12,0,1,1,465,298
3,15,13,0,1,1,459,299
3,15,14,0,1,1,400,300
3,15,15,0,1,1,385,301
3,15,16,0,2,1,387,302
3,15,17,0,2,1,448,303
3,15,18,0,2,1,629,304
3,15,19,0,1,1,299,305
3,15,20,0,2,1,288,306
3,15,21,0,2,1,337,307
3,15,22,0,1,1,370,308
3,16,8,2,2,1,399,316
3,16,9,1,1,1,316,317
3,16,14,2,1,1,495,322
3,16,17,1,2,1,238,325
3,17,2,1,1,1,197,332
3,17,6,2,2,1,434,336
3,17,9,1,2,1,346,339
3,17,14,2,2,0,293,344
3,18,4,2,1,1,480,356
3,18,6,1,2,1,224,358
3,18,7,1,1,1,278,359
3,18,21,2,2,1,468,373
3,19,7,2,1,1,413,381
3,19,10,1,2,1,349,384
3,19,11,2,2,1,494,385
3,19,21,1,1,1,279,395
3,20,4,1,2,1,324,400
3,20,8,2,1,0,325,404
3,20,12,1,1,1,583,408
3,20,13,2,1,1,605,409
3,21,1,1,1,1,465,419
3,21,13,2,2,1,395,431
3,21,20,1,2,1,209,438
3,21,22,2,1,1,627,440
3,22,1,0,1,1,426,441
3,22,2,0,2,1,352,442
3,22,3,0,1,1,311,443
3,22,4,0,2,1,322,444
3,22,5,0,1,1,295,445
3,22,6,0,2,1,328,446
3,22,7,0,1,1,330,447
3,22,8,0,1,1,411,448
3,22,9,0,1,1,348,449
3,22,10,0,1,1,293,450
3,22,11,0,1,1,319,451
3,22,12,0,2,1,528,452
3,22,13,0,2,1,462,453
3,22,14,0,2,1,359,454
3,22,15,0,2,1,364,455
3,22,16,0,2,1,369,456
3,22,17,0,1,1,423,457
3,22,18,0,2,1,408,458
3,22,19,0,1,1,386,459
3,22,20,0,1,1,374,460
3,22,21,0,2,1,348,461
3,22,22,0,2,1,353,462
3,23,5,1,2,1,224,467
3,23,8,2,1,1,504,470
3,23,18,1,1,1,328,480
3,23,21,2,2,1,492,483
3,24,1,1,2,1,221,485
3,24,2,2,1,1,434,486
3,24,13,1,1,1,349,497
3,24,21,2,2,1,418,505
3,25,2,1,1,1,312,508
3,25,8,1,2,1,264,514
3,25,15,2,1,0,290,521
3,25,16,2,1,1,657,522
3,26,2,1,1,1,446,530
3,26,6,1,2,1,359,534
3,26,7,2,2,0,204,535
3,26,11,2,1,0,168,539
3,27,6,2,2,1,474,556
3,27,9,1,2,1,346,559
3,27,11,2,1,1,500,561
3,27,13,1,1,1,423,563
3,28,1,1,2,1,382,573
3,28,4,2,2,1,577,576
3,28,5,1,1,1,337,577
3,28,10,2,1,1,484,582
3,29,1,0,2,1,395,595
3,29,2,0,1,1,405,596
3,29,3,0,1,1,478,597
3,29,4,0,1,1,395,598
3,29,5,0,2,1,378,599
3,29,6,0,1,1,458,600
3,29,7,0,2,1,339,601
3,29,8,0,1,1,428,602
3,29,9,0,2,1,394,603
3,29,10,0,2,1,404,604
3,29,11,0,2,1,369,605
3,29,12,0,1,1,370,606
3,29,13,0,2,1,367,607
3,29,14,0,1,1,336,608
3,29,15,0,1,1,386,609
3,29,16,0,2,1,375,610
3,29,17,0,1,1,404,611
3,29,18,0,2,1,354,612
3,29,19,0,2,1,438,613
3,29,20,0,1,1,420,614
3,29,21,0,1,1,490,615
3,29,22,0,2,1,735,616
3,30,5,1,2,1,268,621
3,30,8,2,2,0,251,624
3,30,13,1,1,1,331,629
3,30,14,2,2,1,537,630
3,31,12,1,1,1,368,650
3,31,14,2,1,1,547,652
3,31,15,2,1,0,237,653
3,31,16,1,2,1,384,654
3,32,11,2,2,0,217,671
3,32,16,1,2,1,285,676
3,32,17,2,1,0,167,677
3,32,22,1,1,1,226,682
3,33,2,2,1,0,198,684
3,33,4,2,1,1,423,686
3,33,12,1,2,1,341,694
3,33,19,1,1,1,307,701
3,34,4,1,1,1,275,708
3,34,12,2,1,0,280,716
3,34,13,1,2,1,213,717
3,35,6,2,1,0,263,732
3,35,7,1,2,1,232,733
3,35,8,1,1,1,117,734
3,35,22,2,1,1,447,748
3,36,1,0,2,1,423,749
3,36,2,0,2,1,303,750
3,36,3,0,2,1,313,751
3,36,4,0,1,1,385,752
3,36,5,0,2,1,327,753
3,36,6,0,1,1,329,754
3,36,7,0,1,1,353,755
3,36,8,0,1,1,348,756
3,36,9,0,2,1,356,757
3,36,10,0,1,1,345,758
3,36,11,0,2,1,347,759
3,36,12,0,2,1,340,760
3,36,13,0,2,1,345,761
3,36,14,0,1,1,458,762
3,36,15,0,1,1,475,763
3,36,16,0,1,1,383,764
3,36,17,0,1,1,326,765
3,36,18,0,2,1,452,766
3,36,19,0,2,1,470,767
3,36,20,0,1,1,430,768
3,36,21,0,2,1,372,769
3,36,22,0,1,1,326,770
3,37,4,1,2,1,186,774
3,37,6,1,1,1,172,776
3,37,8,2,1,0,159,778
3,37,19,2,2,0,266,789
3,38,1,2,1,1,495,793
3,38,5,2,2,1,421,797
3,38,7,1,2,1,281,799
3,38,12,1,1,1,353,804
3,39,3,2,2,0,328,817
3,39,8,1,2,1,352,822
3,39,9,2,1,0,201,823
3,39,18,1,1,1,254,832
3,40,4,2,1,0,248,840
3,40,17,2,1,1,493,853
3,40,20,1,2,1,357,856
3,40,22,1,1,1,332,858
3,41,2,1,1,1,196,860
3,41,3,1,2,1,193,861
3,41,5,2,2,1,441,863
3,41,22,2,2,0,278,880
3,42,9,2,2,1,452,889
3,42,14,2,1,1,449,894
3,42,17,1,2,1,468,897
3,42,22,1,1,1,387,902
3,43,1,0,2,1,377,903
3,43,2,0,1,1,381,904
3,43,3,0,1,1,411,905
3,43,4,0,1,1,337,906
3,43,5,0,2,1,334,907
3,43,6,0,2,1,387,908
3,43,7,0,1,1,360,909
3,43,8,0,2,1,341,910
3,43,9,0,1,1,351,911
3,43,10,0,2,1,328,912
3,43,11,0,2,1,301,913
3,43,12,0,2,1,347,914
3,43,13,0,1,1,373,915
3,43,14,0,2,1,373,916
3,43,15,0,2,1,387,917
3,43,16,0,1,1,377,918
3,43,17,0,1,1,290,919
3,43,18,0,1,1,314,920
3,43,19,0,2,1,396,921
3,43,20,0,2,1,333,922
3,43,21,0,1,1,346,923
3,43,22,0,1,1,384,924
3,44,6,1,2,1,272,930
3,44,18,1,1,1,429,942
3,44,19,2,2,1,603,943
3,44,21,2,1,1,445,945
3,45,2,2,2,0,266,948
3,45,3,1,2,1,389,949
3,45,18,2,1,0,241,964
3,45,21,1,1,1,333,967
3,46,8,1,1,1,214,976
3,46,13,2,1,1,521,981
3,46,17,2,2,1,430,985
3,46,20,1,2,1,267,988
3,47,9,2,2,1,370,999
3,47,10,1,2,1,160,1000
3,47,15,1,1,1,317,1005
3,47,20,2,1,1,418,1010
3,48,12,2,2,1,345,1024
3,48,13,1,1,1,225,1025
3,48,14,1,2,1,213,1026
3,48,15,2,2,0,203,1027
3,49,1,2,1,1,498,1035
3,49,3,2,1,0,196,1037
3,49,9,1,1,1,354,1043
3,49,10,1,2,1,351,1044
3,50,1,0,1,1,625,1057
3,50,2,0,2,1,462,1058
3,50,3,0,2,1,367,1059
3,50,4,0,2,1,360,1060
3,50,5,0,2,1,318,1061
3,50,6,0,2,1,316,1062
3,50,7,0,1,1,416,1063
3,50,8,0,1,1,421,1064
3,50,9,0,1,1,368,1065
3,50,10,0,1,1,309,1066
3,50,11,0,1,1,382,1067
3,50,12,0,1,1,384,1068
3,50,13,0,1,1,344,1069
3,50,14,0,2,1,397,1070
3,50,15,0,1,1,378,1071
3,50,16,0,2,1,368,1072
3,50,17,0,1,1,384,1073
3,50,18,0,2,1,378,1074
3,50,19,0,1,1,399,1075
3,50,20,0,2,1,347,1076
3,50,21,0,2,1,522,1077
3,50,22,0,2,1,581,1078
3,51,2,1,2,1,263,1080
3,51,8,2,2,1,508,1086
3,51,20,2,1,1,420,1098
3,51,22,1,1,1,230,1100
3,52,12,1,2,1,356,1112
3,52,16,1,1,1,367,1116
3,52,21,2,2,0,271,1121
3,52,22,2,2,1,469,1122
3,53,2,1,1,1,312,1124
3,53,8,1,2,1,309,1130
3,53,11,2,1,0,269,1133
3,53,18,2,2,0,241,1140
3,54,5,2,2,0,251,1149
3,54,9,1,1,1,382,1153
3,54,10,2,1,0,387,1154
3,54,21,1,2,1,247,1165
3,55,5,2,1,1,409,1171
3,55,8,1,2,1,227,1174
3,55,10,2,1,0,201,1176
3,55,19,1,1,1,356,1185
3,56,1,1,2,0,411,1189
3,56,2,2,1,0,246,1190
3,56,9,2,2,0,205,1197
3,56,16,1,2,1,252,1204
3,57,1,0,1,1,477,1211
3,57,2,0,2,1,339,1212
3,57,3,0,2,1,424,1213
3,57,4,0,1,1,365,1214
3,57,5,0,1,1,426,1215
3,57,6,0,1,1,320,1216
3,57,7,0,1,1,410,1217
3,57,8,0,1,1,506,1218
3,57,9,0,2,1,399,1219
3,57,10,0,2,1,330,1220
3,57,11,0,2,1,282,1221
3,57,12,0,2,1,318,1222
3,57,13,0,2,1,293,1223
3,57,14,0,1,1,474,1224
3,57,15,0,2,1,367,1225
3,57,16,0,2,1,358,1226
3,57,17,0,1,1,367,1227
3,57,18,0,1,1,399,1228
3,57,19,0,1,1,356,1229
3,57,20,0,2,1,376,1230
3,57,21,0,1,1,511,1231
3,57,22,0,2,1,363,1232
3,58,1,2,2,1,734,1233
3,58,4,2,2,0,191,1236
3,58,9,1,1,1,435,1241
3,58,14,1,2,1,312,1246
3,59,1,1,2,1,284,1255
3,59,12,2,1,1,443,1266
3,59,14,2,2,1,503,1268
3,59,20,1,1,1,460,1274
3,60,6,1,1,1,287,1282
3,60,8,1,2,1,279,1284
3,60,9,2,1,1,398,1285
3,60,16,2,2,1,469,1292
3,61,2,2,1,0,208,1300
3,61,3,1,2,1,328,1301
3,61,19,1,1,1,200,1317
3,61,20,2,2,0,158,1318
3,62,12,2,1,1,455,1332
3,62,15,2,2,1,383,1335
3,62,17,1,2,1,263,1337
3,62,22,1,1,1,450,1342
3,63,1,1,1,1,460,1343
3,63,9,1,2,1,270,1351
3,63,12,2,2,1,470,1354
3,63,20,2,1,1,460,1362
3,64,1,0,1,1,541,1365
3,64,2,0,1,1,417,1366
3,64,3,0,2,1,359,1367
3,64,4,0,1,1,324,1368
3,64,5,0,1,1,370,1369
3,64,6,0,1,1,319,1370
3,64,7,0,2,1,340,1371
3,64,8,0,2,1,497,1372
3,64,9,0,2,1,375,1373
3,64,10,0,2,1,369,1374
3,64,11,0,2,1,425,1375
3,64,12,0,2,1,350,1376
3,64,13,0,2,1,377,1377
3,64,14,0,2,1,321,1378
3,64,15,0,1,1,476,1379
3,64,16,0,2,1,356,1380
3,64,17,0,1,1,401,1381
3,64,18,0,1,1,431,1382
3,64,19,0,2,1,372,1383
3,64,20,0,1,1,305,1384
3,64,21,0,1,1,374,1385
3,64,22,0,2,0,259,1386
3,65,13,1,2,1,353,1399
3,65,15,2,1,1,548,1401
3,65,18,2,1,0,248,1404
3,65,20,1,1,1,428,1406
3,66,3,2,1,1,462,1411
3,66,7,2,2,1,506,1415
3,66,10,1,2,1,562,1418
3,66,16,1,1,1,419,1424
3,67,4,2,1,1,421,1434
3,67,7,1,2,1,275,1437
3,67,10,2,2,1,516,1440
3,67,20,1,1,1,346,1450
3,68,3,1,2,1,212,1455
3,68,12,1,1,1,351,1464
3,68,13,2,1,1,573,1465
3,68,19,2,2,1,491,1471
3,69,6,1,1,1,345,1480
3,69,12,1,2,1,195,1486
3,69,16,2,2,1,334,1490
3,69,22,2,2,0,251,1496
3,70,2,2,2,0,234,1498
3,70,11,2,2,1,393,1507
3,70,16,1,2,1,300,1512
3,71,1,0,1,1,440,1519
3,71,2,0,1,1,372,1520
3,71,3,0,2,1,356,1521
3,71,4,0,1,1,335,1522
3,71,5,0,1,1,421,1523
3,71,6,0,2,1,392,1524
3,71,7,0,1,1,311,1525
3,71,8,0,2,1,285,1526
3,71,9,0,2,1,609,1527
3,71,10,0,2,1,392,1528
3,71,11,0,1,1,372,1529
3,71,12,0,1,1,322,1530
3,71,13,0,1,1,278,1531
3,71,14,0,1,1,188,1532
3,71,15,0,2,1,384,1533
3,71,16,0,1,1,336,1534
3,71,17,0,2,1,300,1535
3,71,18,0,1,1,266,1536
3,71,19,0,2,1,347,1537
3,71,20,0,1,0,290,1538
3,71,21,0,2,1,338,1539
3,71,22,0,2,1,300,1540
4,2,7,2,1,1,413,7
4,2,11,1,1,1,371,11
4,2,18,2,2,1,376,18
4,2,19,1,2,1,328,19
4,3,8,2,2,1,376,30
4,3,9,1,1,1,278,31
4,3,14,2,1,1,440,36
4,3,17,1,2,1,312,39
4,4,2,1,1,1,296,46
4,4,6,2,2,1,333,50
4,4,9,1,2,1,333,53
4,4,14,2,2,0,279,58
4,5,4,2,1,1,450,70
4,5,6,1,2,1,381,72
4,5,7,1,1,1,362,73
4,5,21,2,2,1,452,87
4,6,7,2,1,1,372,95
4,6,10,1,2,1,388,98
4,6,11,2,2,1,498,99
4,6,21,1,1,1,334,109
4,7,4,1,2,1,419,114
4,7,8,2,2,1,423,118
4,7,12,1,1,1,499,122
4,7,13,2,1,1,400,123
4,8,1,0,1,1,332,133
4,8,2,0,2,1,369,134
4,8,3,0,2,1,342,135
4,8,4,0,2,1,396,136
4,8,5,0,1,1,380,137
4,8,6,0,1,1,326,138
4,8,7,0,1,1,403,139
4,8,8,0,2,1,328,140
4,8,9,0,2,1,382,141
4,8,10,0,2,1,363,142
4,8,11,0,1,1,353,143
4,8,12,0,2,1,326,144
4,8,13,0,2,1,371,145
4,8,14,0,1,1,368,146
4,8,15,0,1,1,366,147
4,8,16,0,1,1,323,148
4,8,17,0,1,1,352,149
4,8,18,0,2,1,366,150
4,8,19,0,1,0,291,151
4,8,20,0,1,1,446,152
4,8,21,0,2,1,363,153
4,8,22,0,1,1,328,154
4,9,4,1,2,1,297,158
4,9,8,2,2,1,502,162
4,9,12,1,1,1,431,166
4,9,13,2,1,1,449,167
4,10,1,1,1,1,347,177
4,10,13,2,2,1,383,189
4,10,20,1,2,1,332,196
4,10,22,2,1,1,446,198
4,11,5,1,2,1,331,203
4,11,8,2,1,1,440,206
4,11,18,1,1,1,358,216
4,11,21,2,2,1,410,219
4,12,1,1,2,1,349,221
4,12,2,2,1,1,375,222
4,12,13,1,1,1,351,233
4,12,21,2,2,1,378,241
4,13,2,1,1,1,303,244
4,13,8,1,2,1,343,250
4,13,15,2,2,1,381,257
4,13,16,2,1,1,405,258
4,14,2,1,1,1,260,266
4,14,6,1,2,1,339,270
4,14,7,2,1,1,391,271
4,14,11,2,2,1,572,275
4,15,1,0,1,1,340,287
4,15,2,0,2,1,381,288
4,15,3,0,1,1,310,289
4,15,4,0,1,1,355,290
4,15,5,0,1,1,345,291
4,15,6,0,2,1,334,292
4,15,7,0,2,1,303,293
4,15,8,0,2,1,325,294
4,15,9,0,1,1,406,295
4,15,10,0,2,1,387,296
4,15,11,0,1,1,320,297
4,15,12,0,2,1,310,298
4,15,13,0,1,1,351,299
4,15,14,0,1,1,288,300
4,15,15,0,2,1,333,301
4,15,16,0,1,1,339,302
4,15,17,0,2,1,384,303
4,15,18,0,1,1,301,304
4,15,19,0,1,1,291,305
4,15,20,0,2,1,520,306
4,15,21,0,2,1,366,307
4,15,22,0,1,0,266,308
4,16,6,2,2,1,396,314
4,16,9,1,2,1,300,317
4,16,11,2,1,1,479,319
4,16,13,1,1,1,337,321
4,17,1,1,2,1,354,331
4,17,4,2,2,1,410,334
4,17,5,1,1,1,311,335
4,17,10,2,1,1,385,340
4,18,5,1,2,1,366,357
4,18,8,2,1,1,406,360
4,18,13,1,1,1,272,365
4,18,14,2,2,1,438,366
4,19,12,1,1,1,249,386
4,19,14,2,1,1,324,388
4,19,15,2,2,1,369,389
4,19,16,1,2,1,374,390
4,20,11,2,1,1,500,407
4,20,17,2,1,0,561,413
4,20,22,1,1,1,274,418
4,21,2,2,1,0,157,420
4,21,4,2,1,1,366,422
4,21,12,1,2,1,327,430
4,21,19,1,1,1,309,437
4,22,1,0,2,1,325,441
4,22,2,0,1,1,454,442
4,22,3,0,2,1,351,443
4,22,4,0,1,1,357,444
4,22,5,0,1,1,338,445
4,22,6,0,2,1,463,446
4,22,7,0,1,1,381,447
4,22,8,0,1,1,322,448
4,22,9,0,2,1,359,449
4,22,10,0,2,1,360,450
4,22,11,0,2,1,386,451
4,22,12,0,1,1,352,452
4,22,13,0,1,1,324,453
4,22,14,0,2,0,289,454
4,22,15,0,1,1,361,455
4,22,16,0,2,1,325,456
4,22,17,0,2,1,376,457
4,22,18,0,2,1,397,458
4,22,19,0,2,1,354,459
4,22,20,0,1,1,338,460
4,22,21,0,2,1,333,461
4,22,22,0,2,0,301,462
4,23,4,1,1,1,162,466
4,23,12,2,2,1,578,474
4,23,13,1,2,1,320,475
4,23,17,2,1,1,445,479
4,24,6,2,1,0,437,490
4,24,7,1,2,1,452,491
4,24,8,1,1,1,369,492
4,24,22,2,1,1,355,506
4,25,4,1,2,1,332,510
4,25,6,1,1,1,230,512
4,25,8,2,2,1,473,514
4,25,19,2,1,1,347,525
4,26,1,2,1,1,366,529
4,26,5,2,2,1,402,533
4,26,7,1,2,1,388,535
4,26,12,1,1,1,333,540
4,27,3,2,1,1,490,553
4,27,8,1,2,1,386,558
4,27,9,2,2,1,503,559
4,27,18,1,1,1,297,568
4,28,4,2,2,1,370,576
4,28,17,2,1,1,463,589
4,28,20,1,2,1,327,592
4,28,22,1,1,1,362,594
4,29,1,0,2,1,340,595
4,29,2,0,2,1,329,596
4,29,3,0,1,1,394,597
4,29,4,0,1,1,308,598
4,29,5,0,1,1,345,599
4,29,6,0,2,1,374,600
4,29,7,0,1,1,347,601
4,29,8,0,1,1,337,602
4,29,9,0,1,1,366,603
4,29,10,0,2,1,339,604
4,29,11,0,2,1,321,605
4,29,12,0,2,1,374,606
4,29,13,0,2,1,315,607
4,29,14,0,2,0,312,608
4,29,15,0,2,1,356,609
4,29,16,0,1,1,329,610
4,29,17,0,2,1,342,611
4,29,18,0,2,1,316,612
4,29,19,0,1,1,377,613
4,29,20,0,2,0,246,614
4,29,21,0,2,1,401,615
4,29,22,0,1,1,326,616
4,30,2,1,1,1,260,618
4,30,3,1,2,1,353,619
4,30,5,2,2,1,380,621
4,30,22,2,1,1,421,638
4,31,9,2,1,0,200,647
4,31,14,2,1,1,345,652
4,31,17,1,2,1,320,655
4,31,22,1,1,1,362,660
4,32,6,1,2,1,331,666
4,32,18,1,1,1,166,678
4,32,19,2,2,1,456,679
4,32,21,2,2,0,211,681
4,33,2,2,1,1,457,684
4,33,3,1,2,1,347,685
4,33,18,2,2,1,540,700
4,33,21,1,1,1,344,703
4,34,8,1,1,1,367,712
4,34,13,2,1,1,361,717
4,34,17,2,2,1,403,721
4,34,20,1,2,1,333,724
4,35,9,2,2,1,394,735
4,35,10,1,2,1,340,736
4,35,15,1,1,1,321,741
4,35,20,2,1,1,339,746
4,36,1,0,2,1,363,749
4,36,2,0,2,1,384,750
4,36,3,0,1,1,397,751
4,36,4,0,2,1,363,752
4,36,5,0,1,1,344,753
4,36,6,0,2,1,358,754
4,36,7,0,1,1,306,755
4,36,8,0,1,1,288,756
4,36,9,0,2,1,378,757
4,36,10,0,2,1,379,758
4,36,11,0,2,1,375,759
4,36,12,0,1,1,349,760
4,36,13,0,1,1,338,761
4,36,14,0,2,1,367,762
4,36,15,0,2,1,413,763
4,36,16,0,1,1,402,764
4,36,17,0,1,1,420,765
4,36,18,0,2,1,380,766
4,36,19,0,1,1,346,767
4,36,20,0,2,1,327,768
4,36,21,0,1,1,317,769
4,36,22,0,1,1,370,770
4,37,12,2,2,1,388,782
4,37,13,1,1,1,322,783
4,37,14,1,2,1,399,784
4,37,15,2,1,1,428,785
4,38,1,2,1,1,389,793
4,38,3,2,2,1,423,795
4,38,9,1,1,1,360,801
4,38,10,1,2,1,386,802
4,39,2,1,2,1,287,816
4,39,8,2,2,1,383,822
4,39,20,2,1,1,374,834
4,39,22,1,1,1,322,836
4,40,12,1,2,1,257,848
4,40,16,1,1,1,375,852
4,40,21,2,1,1,361,857
4,40,22,2,2,1,359,858
4,41,2,1,1,1,347,860
4,41,8,1,2,1,259,866
4,41,11,2,2,1,514,869
4,41,18,2,1,1,413,876
4,42,5,2,1,1,392,885
4,42,9,1,1,1,217,889
4,42,10,2,2,1,366,890
4,42,21,1,2,1,358,901
4,43,1,0,1,1,382,903
4,43,2,0,2,1,347,904
4,43,3,0,2,1,297,905
4,43,4,0,1,0,254,906
4,43,5,0,2,1,349,907
4,43,6,0,2,1,330,908
4,43,7,0,2,1,367,909
4,43,8,0,2,1,429,910
4,43,9,0,2,1,274,911
4,43,10,0,1,1,311,912
4,43,11,0,1,1,324,913
4,43,12,0,1,1,313,914
4,43,13,0,1,1,311,915
4,43,14,0,1,1,316,916
4,43,15,0,1,0,330,917
4,43,16,0,1,1,500,918
4,43,17,0,1,1,329,919
4,43,18,0,2,1,446,920
4,43,19,0,1,1,331,921
4,43,20,0,1,1,336,922
4,43,21,0,2,1,374,923
4,43,22,0,1,1,331,924
4,44,5,2,1,1,345,929
4,44,8,1,2,1,294,932
4,44,10,2,2,1,364,934
4,44,19,1,1,1,267,943
4,45,1,1,1,1,305,947
4,45,2,2,2,1,390,948
4,45,9,2,1,1,363,955
4,45,16,1,2,1,374,962
4,46,1,2,2,1,355,969
4,46,4,2,1,1,379,972
4,46,9,1,1,1,213,977
4,46,14,1,2,1,348,982
4,47,1,1,2,1,336,991
4,47,12,2,1,1,401,1002
4,47,14,2,2,1,412,1004
4,47,20,1,1,1,308,1010
4,48,6,1,1,1,319,1018
4,48,8,1,2,1,217,1020
4,48,9,2,1,1,375,1021
4,48,16,2,2,1,354,1028
4,49,2,2,1,0,228,1036
4,49,3,1,2,1,385,1037
4,49,19,1,1,1,268,1053
4,49,20,2,1,1,425,1054
4,50,2,0,2,1,359,1058
4,50,3,0,1,1,301,1059
4,50,4,0,1,1,346,1060
4,50,5,0,2,1,320,1061
4,50,6,0,1,1,285,1062
4,50,7,0,2,1,330,1063
4,50,8,0,2,1,351,1064
4,50,9,0,2,1,277,1065
4,50,10,0,2,0,274,1066
4,50,11,0,1,1,368,1067
4,50,12,0,1,1,347,1068
4,50,13,0,2,1,312,1069
4,50,14,0,2,1,333,1070
4,50,15,0,2,1,330,1071
4,50,16,0,2,1,287,1072
4,50,17,0,1,1,348,1073
4,50,18,0,2,1,358,1074
4,50,19,0,1,1,312,1075
4,50,20,0,2,1,341,1076
4,50,21,0,1,1,322,1077
4,50,22,0,1,1,381,1078
4,51,12,2,1,1,383,1090
4,51,15,2,2,1,431,1093
4,51,17,1,2,1,346,1095
4,51,22,1,1,1,333,1100
4,52,1,1,1,1,265,1101
4,52,9,1,2,1,321,1109
4,52,12,2,2,1,377,1112
4,52,20,2,1,1,345,1120
4,53,13,1,2,1,305,1135
4,53,15,2,1,1,417,1137
4,53,18,2,2,1,393,1140
4,53,20,1,1,1,363,1142
4,54,3,2,1,1,369,1147
4,54,7,2,2,1,431,1151
4,54,10,1,2,1,310,1154
4,54,16,1,1,1,339,1160
4,55,4,2,1,1,348,1170
4,55,7,1,2,1,259,1173
4,55,10,2,2,1,379,1176
4,55,20,1,1,1,158,1186
4,56,3,1,2,1,345,1191
4,56,12,1,1,1,203,1200
4,56,13,2,1,1,339,1201
4,56,19,2,2,1,347,1207
4,57,1,0,1,1,801,1211
4,57,2,0,1,1,367,1212
4,57,3,0,2,1,333,1213
4,57,4,0,2,1,369,1214
4,57,5,0,2,1,343,1215
4,57,6,0,1,1,316,1216
4,57,7,0,1,1,297,1217
4,57,8,0,1,1,294,1218
4,57,9,0,2,1,340,1219
4,57,10,0,2,1,354,1220
4,57,11,0,2,1,286,1221
4,57,12,0,1,1,300,1222
4,57,13,0,1,1,353,1223
4,57,14,0,2,1,279,1224
4,57,15,0,2,1,308,1225
4,57,16,0,1,1,265,1226
4,57,17,0,2,1,342,1227
4,57,18,0,1,1,292,1228
4,57,19,0,2,0,303,1229
4,57,20,0,1,1,420,1230
4,57,21,0,2,1,374,1231
4,57,22,0,2,1,404,1232
4,58,6,1,1,1,314,1238
4,58,12,1,2,1,289,1244
4,58,16,2,2,1,356,1248
4,58,22,2,1,1,348,1254
4,59,1,1,1,1,305,1255
4,59,2,2,1,1,406,1256
4,59,11,2,2,1,442,1265
4,59,16,1,2,1,357,1270
4,60,8,2,2,1,453,1284
4,60,18,2,1,1,382,1294
4,60,21,1,1,1,263,1297
4,60,22,1,2,1,316,1298
4,61,5,1,1,1,273,1303
4,61,11,1,2,1,359,1309
4,61,16,2,1,1,387,1314
4,61,21,2,2,1,403,1319
4,62,1,1,2,1,189,1321
4,62,18,2,1,1,379,1338
4,62,19,2,2,1,400,1339
4,62,22,1,1,1,376,1342
4,63,7,1,2,1,374,1349
4,63,8,2,1,1,363,1350
4,63,19,1,1,1,379,1361
4,63,20,2,2,1,385,1362
4,64,1,0,2,1,670,1365
4,64,2,0,1,1,361,1366
4,64,3,0,1,1,518,1367
4,64,4,0,2,0,363,1368
4,64,5,0,1,1,358,1369
4,64,6,0,2,1,364,1370
4,64,7,0,1,1,313,1371
4,64,8,0,1,0,295,1372
4,64,9,0,2,1,425,1373
4,64,10,0,1,1,351,1374
4,64,11,0,1,1,345,1375
4,64,12,0,1,1,346,1376
4,64,13,0,1,1,335,1377
4,64,14,0,2,1,308,1378
4,64,15,0,2,1,386,1379
4,64,16,0,2,1,383,1380
4,64,17,0,1,1,316,1381
4,64,18,0,2,1,281,1382
4,64,19,0,2,1,339,1383
4,64,20,0,1,1,308,1384
4,64,21,0,2,1,337,1385
4,64,22,0,2,1,391,1386
4,65,1,2,1,1,390,1387
4,65,2,1,1,1,300,1388
4,65,5,2,2,1,393,1391
4,65,22,1,2,1,351,1408
4,66,8,2,2,1,401,1416
4,66,10,2,2,0,174,1418
4,66,13,1,2,1,348,1421
4,66,17,1,1,1,273,1425
4,67,10,2,2,1,348,1440
4,67,13,1,2,1,364,1443
4,67,15,2,1,1,452,1445
4,67,18,1,1,1,318,1448
4,68,5,2,2,1,369,1457
4,68,6,2,1,1,333,1458
4,68,10,1,1,1,307,1462
4,68,20,1,2,1,229,1472
4,69,4,2,1,1,394,1478
4,69,6,2,2,1,366,1480
4,69,10,1,1,1,249,1484
4,69,22,1,2,1,344,1496
4,70,1,2,2,1,490,1497
4,70,5,1,1,1,334,1501
4,70,14,2,1,1,447,1510
4,70,21,1,2,1,395,1517
4,71,1,0,2,1,375,1519
4,71,2,0,1,1,356,1520
4,71,3,0,1,1,354,1521
4,71,4,0,1,0,294,1522
4,71,5,0,1,1,338,1523
4,71,6,0,2,1,271,1524
4,71,7,0,1,1,308,1525
4,71,8,0,2,1,354,1526
4,71,9,0,2,1,328,1527
4,71,10,0,2,1,337,1528
4,71,11,0,1,1,241,1529
4,71,12,0,2,0,287,1530
4,71,13,0,2,1,306,1531
4,71,14,0,1,1,311,1532
4,71,15,0,2,1,364,1533
4,71,16,0,1,1,282,1534
4,71,17,0,1,1,319,1535
4,71,18,0,1,1,300,1536
4,71,19,0,2,1,369,1537
4,71,20,0,2,0,327,1538
4,71,21,0,2,1,370,1539
4,71,22,0,1,0,294,1540
5,2,2,1,1,1,228,2
5,2,6,1,2,1,217,6
5,2,7,2,1,1,599,7
5,2,11,2,1,0,252,11
5,3,6,2,1,0,192,28
5,3,9,1,2,1,423,31
5,3,11,2,1,1,505,33
5,3,13,1,1,1,476,35
5,4,1,1,2,1,172,45
5,4,4,2,1,0,215,48
5,4,5,1,1,1,386,49
5,4,10,2,2,0,189,54
5,5,5,1,2,1,153,71
5,5,8,2,2,0,209,74
5,5,13,1,1,1,272,79
5,5,14,2,1,0,252,80
5,6,12,1,1,1,258,100
5,6,14,2,2,0,302,102
5,6,15,2,1,0,232,103
5,6,16,1,2,1,380,104
5,7,11,2,2,0,145,121
5,7,16,1,2,1,153,126
5,7,17,2,1,0,206,127
5,7,22,1,1,1,239,132
5,8,1,0,2,1,366,133
5,8,2,0,1,1,315,134
5,8,3,0,2,0,321,135
5,8,4,0,1,1,423,136
5,8,5,0,1,1,464,137
5,8,6,0,2,1,358,138
5,8,7,0,1,1,364,139
5,8,8,0,2,1,401,140
5,8,9,0,2,1,494,141
5,8,10,0,1,1,507,142
5,8,11,0,2,1,289,143
5,8,12,0,2,1,330,144
5,8,13,0,2,1,275,145
5,8,14,0,1,1,464,146
5,8,15,0,2,1,350,147
5,8,16,0,1,1,365,148
5,8,17,0,2,1,292,149
5,8,18,0,1,0,277,150
5,8,19,0,1,1,368,151
5,8,20,0,2,1,286,152
5,8,21,0,1,1,411,153
5,8,22,0,1,1,424,154
5,9,11,2,2,0,333,165
5,9,16,1,2,1,244,170
5,9,17,2,1,0,305,171
5,9,22,1,1,1,200,176
5,10,2,2,1,0,239,178
5,10,4,2,1,1,436,180
5,10,12,1,2,1,324,188
5,10,19,1,1,1,215,195
5,11,4,1,1,1,161,202
5,11,12,2,1,0,193,210
5,11,13,1,2,1,341,211
5,11,17,2,1,1,496,215
5,12,6,2,1,0,250,226
5,12,7,1,2,1,333,227
5,12,8,1,1,1,250,228
5,12,22,2,1,1,408,242
5,13,4,1,2,1,260,246
5,13,6,1,1,1,317,248
5,13,8,2,1,0,280,250
5,13,19,2,2,0,152,261
5,14,1,2,2,0,155,265
5,14,5,2,2,1,110,269
5,14,7,1,2,1,176,271
5,14,12,1,1,1,265,276
5,15,1,0,2,1,419,287
5,15,2,0,1,0,268,288
5,15,3,0,1,1,348,289
5,15,4,0,1,1,433,290
5,15,5,0,2,1,389,291
5,15,6,0,2,1,415,292
5,15,7,0,2,1,429,293
5,15,8,0,1,1,378,294
5,15,9,0,2,1,343,295
5,15,10,0,1,1,420,296
5,15,11,0,2,0,298,297
5,15,12,0,1,1,428,298
5,15,13,0,1,1,376,299
5,15,14,0,1,1,358,300
5,15,15,0,1,1,275,301
5,15,16,0,2,1,371,302
5,15,17,0,2,1,478,303
5,15,18,0,1,1,443,304
5,15,19,0,1,1,416,305
5,15,20,0,2,1,373,306
5,15,21,0,1,0,315,307
5,15,22,0,2,1,538,308
5,16,3,2,1,1,402,311
5,16,8,1,2,1,249,316
5,16,9,2,1,0,407,317
5,16,18,1,1,1,373,326
5,17,4,2,2,1,423,334
5,17,17,2,2,0,193,347
5,17,20,1,2,1,426,350
5,17,22,1,1,1,305,352
5,18,2,1,1,1,199,354
5,18,3,1,2,1,164,355
5,18,5,2,1,0,232,357
5,18,22,2,2,0,176,374
5,19,9,2,1,0,260,383
5,19,14,2,1,1,587,388
5,19,17,1,2,1,250,391
5,19,22,1,1,1,293,396
5,20,6,1,2,1,309,402
5,20,18,1,1,1,345,414
5,20,19,2,1,0,218,415
5,20,21,2,2,0,251,417
5,21,2,2,2,0,207,420
5,21,3,1,2,1,415,421
5,21,18,2,1,0,310,436
5,21,21,1,1,1,324,439
5,22,1,0,2,1,338,441
5,22,2,0,1,1,391,442
5,22,3,0,1,1,445,443
5,22,4,0,2,1,378,444
5,22,5,0,1,1,363,445
5,22,6,0,2,1,352,446
5,22,7,0,1,0,306,447
5,22,8,0,2,1,421,448
5,22,9,0,2,1,370,449
5,22,10,0,1,1,351,450
5,22,11,0,1,1,333,451
5,22,12,0,1,1,390,452
5,22,13,0,1,1,347,453
5,22,14,0,2,1,315,454
5,22,15,0,2,1,467,455
5,22,16,0,2,1,351,456
5,22,17,0,1,1,433,457
5,22,18,0,2,0,293,458
5,22,19,0,2,1,413,459
5,22,20,0,2,1,390,460
5,22,21,0,1,1,408,461
5,22,22,0,1,1,333,462
5,23,8,1,1,1,243,470
5,23,13,2,2,0,161,475
5,23,17,2,1,0,232,479
5,23,20,1,2,1,254,482
5,24,9,2,2,1,612,493
5,24,10,1,2,1,281,494
5,24,15,1,1,1,338,499
5,24,20,2,1,1,363,504
5,25,12,2,1,0,222,518
5,25,13,1,1,1,417,519
5,25,14,1,2,1,247,520
5,25,15,2,2,0,267,521
5,26,1,2,2,0,220,529
5,26,3,2,1,0,249,531
5,26,9,1,1,1,303,537
5,26,10,1,2,1,144,538
5,27,2,1,2,1,221,552
5,27,8,2,1,0,235,558
5,27,20,2,1,1,628,570
5,27,22,1,1,1,247,572
5,28,12,1,2,1,320,584
5,28,16,1,1,1,211,588
5,28,21,2,2,0,214,593
5,28,22,2,1,0,232,594
5,29,3,0,1,1,458,597
5,29,4,0,1,1,407,598
5,29,5,0,2,1,389,599
5,29,6,0,1,1,314,600
5,29,7,0,2,1,351,601
5,29,8,0,1,1,332,602
5,29,9,0,2,0,329,603
5,29,10,0,2,1,428,604
5,29,11,0,1,1,364,605
5,29,12,0,2,1,334,606
5,29,13,0,1,1,263,607
5,29,14,0,1,0,368,608
5,29,15,0,2,1,452,609
5,29,16,0,2,1,417,610
5,29,17,0,2,1,351,611
5,29,18,0,1,1,384,612
5,29,19,0,2,0,281,613
5,29,20,0,2,1,364,614
5,29,21,0,1,1,402,615
5,29,22,0,2,1,382,616
5,30,2,1,1,1,239,618
5,30,8,1,2,1,212,624
5,30,11,2,2,1,533,627
5,30,18,2,1,1,477,634
5,31,5,2,2,0,191,643
5,31,9,1,1,1,261,647
5,31,10,2,1,0,184,648
5,31,21,1,2,1,272,659
5,32,5,2,2,0,228,665
5,32,8,1,2,1,185,668
5,32,10,2,1,0,332,670
5,32,19,1,1,1,278,679
5,33,1,1,1,1,276,683
5,33,2,2,1,0,228,684
5,33,9,2,1,1,652,691
5,33,16,1,2,1,320,698
5,34,1,2,1,0,171,705
5,34,4,2,1,1,401,708
5,34,9,1,1,1,355,713
5,34,14,1,2,1,245,718
5,35,1,1,2,1,171,727
5,35,12,2,2,0,302,738
5,35,14,2,2,1,454,740
5,35,20,1,1,1,314,746
5,36,1,0,2,1,380,749
5,36,2,0,1,1,393,750
5,36,3,0,2,1,383,751
5,36,4,0,1,1,301,752
5,36,5,0,1,1,466,753
5,36,6,0,2,1,351,754
5,36,7,0,1,1,365,755
5,36,8,0,1,1,433,756
5,36,9,0,2,1,319,757
5,36,10,0,2,0,332,758
5,36,11,0,1,1,319,759
5,36,12,0,1,1,429,760
5,36,13,0,2,1,354,761
5,36,14,0,1,1,354,762
5,36,15,0,2,1,348,763
5,36,16,0,2,1,458,764
5,36,17,0,2,1,367,765
5,36,18,0,2,0,292,766
5,36,19,0,1,1,359,767
5,36,20,0,2,1,333,768
5,36,21,0,2,1,522,769
5,36,22,0,2,1,528,770
5,37,6,1,1,1,240,776
5,37,8,1,2,1,266,778
5,37,9,2,1,1,384,779
5,37,16,2,2,1,450,786
5,38,2,2,1,0,162,794
5,38,3,1,2,1,194,795
5,38,19,1,1,1,350,811
5,38,20,2,2,0,227,812
5,39,12,2,2,0,267,826
5,39,15,2,1,0,256,829
5,39,17,1,2,1,321,831
5,39,22,1,1,1,395,836
5,40,1,1,1,1,194,837
5,40,9,1,2,1,287,845
5,40,12,2,1,0,210,848
5,40,20,2,2,0,154,856
5,41,13,1,2,1,218,871
5,41,15,2,1,1,484,873
5,41,18,2,2,1,460,876
5,41,20,1,1,1,342,878
5,42,3,2,2,0,268,883
5,42,7,2,2,1,537,887
5,42,10,1,2,1,500,890
5,42,16,1,1,1,263,896
5,43,1,0,1,1,375,903
5,43,2,0,1,1,433,904
5,43,3,0,1,1,425,905
5,43,4,0,1,1,385,906
5,43,5,0,2,1,371,907
5,43,6,0,2,1,441,908
5,43,7,0,2,1,390,909
5,43,8,0,2,1,411,910
5,43,9,0,2,1,336,911
5,43,10,0,1,1,422,912
5,43,11,0,1,1,395,913
5,43,12,0,2,1,505,914
5,43,13,0,1,1,382,915
5,43,14,0,2,1,323,916
5,43,15,0,1,1,277,917
5,43,16,0,2,1,302,918
5,43,17,0,2,1,459,919
5,43,18,0,1,1,361,920
5,43,19,0,2,1,309,921
5,43,20,0,1,1,355,922
5,43,21,0,2,1,245,923
5,43,22,0,1,1,381,924
5,44,4,2,2,0,200,928
5,44,7,1,2,1,310,931
5,44,10,2,1,0,309,934
5,44,20,1,1,1,238,944
5,45,3,1,2,1,191,949
5,45,12,1,1,1,245,958
5,45,13,2,2,0,161,959
5,45,19,2,2,1,469,965
5,46,6,1,1,1,170,974
5,46,12,1,2,1,280,980
5,46,16,2,1,0,372,984
5,46,22,2,2,0,242,990
5,47,1,1,1,1,211,991
5,47,2,2,2,0,184,992
5,47,11,2,2,1,531,1001
5,47,16,1,2,1,233,1006
5,48,8,2,1,0,308,1020
5,48,18,2,2,0,198,1030
5,48,21,1,1,1,252,1033
5,48,22,1,2,1,153,1034
5,49,5,1,1,1,288,1039
5,49,11,1,2,1,340,1045
5,49,16,2,2,0,155,1050
5,49,21,2,2,1,398,1055
5,50,1,0,1,1,371,1057
5,50,2,0,2,1,368,1058
5,50,3,0,2,1,438,1059
5,50,4,0,1,1,411,1060
5,50,5,0,2,1,328,1061
5,50,6,0,1,1,374,1062
5,50,7,0,1,1,435,1063
5,50,8,0,1,1,384,1064
5,50,9,0,1,0,331,1065
5,50,10,0,2,1,463,1066
5,50,11,0,2,1,438,1067
5,50,12,0,2,1,507,1068
5,50,13,0,1,1,376,1069
5,50,14,0,2,1,398,1070
5,50,15,0,2,1,435,1071
5,50,16,0,1,1,409,1072
5,50,17,0,2,1,299,1073
5,50,18,0,1,1,419,1074
5,50,19,0,2,0,377,1075
5,50,20,0,2,1,420,1076
5,50,21,0,1,1,376,1077
5,50,22,0,1,1,454,1078
5,51,1,1,2,1,194,1079
5,51,18,2,2,0,211,1096
5,51,19,2,2,1,734,1097
5,51,22,1,1,1,195,1100
5,52,7,1,2,1,248,1107
5,52,8,2,2,0,253,1108
5,52,19,1,1,1,140,1119
5,52,20,2,2,1,385,1120
5,53,1,2,2,0,188,1123
5,53,2,1,1,1,444,1124
5,53,5,2,2,1,495,1127
5,53,22,1,2,1,340,1144
5,54,8,2,1,0,158,1152
5,54,10,2,1,1,447,1154
5,54,13,1,2,1,323,1157
5,54,17,1,1,1,227,1161
5,55,10,2,1,0,247,1176
5,55,13,1,2,1,234,1179
5,55,15,2,1,1,333,1181
5,55,18,1,1,1,372,1184
5,56,5,2,1,0,246,1193
5,56,6,2,1,1,654,1194
5,56,10,1,1,1,290,1198
5,56,20,1,2,1,447,1208
5,57,1,0,2,1,385,1211
5,57,2,0,1,1,262,1212
5,57,3,0,2,1,278,1213
5,57,4,0,1,1,288,1214
5,57,5,0,2,1,334,1215
5,57,6,0,1,1,387,1216
5,57,7,0,2,0,304,1217
5,57,8,0,2,1,452,1218
5,57,9,0,1,1,304,1219
5,57,10,0,2,1,310,1220
5,57,11,0,2,1,459,1221
5,57,12,0,2,1,360,1222
5,57,13,0,2,1,406,1223
5,57,14,0,2,1,315,1224
5,57,15,0,1,1,328,1225
5,57,16,0,1,1,382,1226
5,57,17,0,1,1,323,1227
5,57,18,0,1,0,281,1228
5,57,19,0,1,1,419,1229
5,57,20,0,2,0,272,1230
5,57,21,0,2,1,372,1231
5,57,22,0,1,1,369,1232
5,58,4,2,1,1,401,1236
5,58,6,2,1,0,227,1238
5,58,10,1,1,1,278,1242
5,58,22,1,2,1,267,1254
5,59,1,2,1,0,237,1255
5,59,5,1,1,1,235,1259
5,59,14,2,2,0,251,1268
5,59,21,1,2,1,222,1275
5,60,2,2,1,0,215,1278
5,60,3,1,1,1,402,1279
5,60,11,1,2,1,355,1287
5,60,17,2,2,0,226,1293
5,61,10,2,1,0,284,1308
5,61,11,1,2,1,262,1309
5,61,20,2,1,1,503,1318
5,61,22,1,1,1,323,1320
5,62,3,2,2,0,222,1323
5,62,5,1,2,1,230,1325
5,62,14,2,1,0,215,1334
5,62,16,1,1,1,728,1336
5,63,9,2,1,0,243,1351
5,63,12,1,1,1,233,1354
5,63,15,1,2,1,249,1357
5,63,21,2,1,1,428,1363
5,64,1,0,1,1,423,1365
5,64,2,0,1,1,380,1366
5,64,3,0,1,1,347,1367
5,64,4,0,2,1,399,1368
5,64,5,0,2,1,388,1369
5,64,6,0,2,1,394,1370
5,64,7,0,2,1,383,1371
5,64,8,0,2,0,324,1372
5,64,9,0,1,1,383,1373
5,64,10,0,1,1,373,1374
5,64,11,0,2,1,282,1375
5,64,12,0,2,1,391,1376
5,64,13,0,2,0,359,1377
5,64,14,0,2,1,343,1378
5,64,15,0,1,1,357,1379
5,64,16,0,2,1,299,1380
5,64,17,0,1,1,215,1381
5,64,18,0,2,0,293,1382
5,64,19,0,2,1,399,1383
5,64,20,0,2,1,435,1384
5,64,21,0,2,1,482,1385
5,64,22,0,1,1,335,1386
5,65,6,2,1,1,358,1392
5,65,8,1,1,1,265,1394
5,65,9,1,2,1,174,1395
5,65,16,2,1,0,226,1402
5,66,1,1,1,1,194,1409
5,66,4,1,2,1,193,1412
5,66,6,2,2,1,546,1414
5,66,18,2,2,0,247,1426
5,67,8,1,1,1,268,1438
5,67,15,1,2,1,365,1445
5,67,21,2,2,0,269,1451
5,67,22,2,1,0,267,1452
5,68,2,1,1,1,328,1454
5,68,3,2,2,1,432,1455
5,68,14,1,2,1,285,1466
5,68,15,2,2,0,356,1467
5,69,2,1,2,1,193,1476
5,69,11,2,2,0,305,1485
5,69,18,2,1,0,276,1492
5,69,20,1,1,1,301,1494
5,70,14,1,1,1,257,1510
5,70,15,1,2,1,300,1511
5,70,16,2,1,0,201,1512
5,70,17,2,1,1,428,1513
5,71,1,0,2,1,409,1519
5,71,3,0,2,1,417,1521
5,71,4,0,2,1,438,1522
5,71,5,0,2,1,340,1523
5,71,6,0,2,0,322,1524
5,71,7,0,2,1,317,1525
5,71,8,0,2,1,490,1526
5,71,9,0,1,1,464,1527
5,71,10,0,2,0,317,1528
5,71,11,0,1,1,368,1529
5,71,12,0,2,0,398,1530
5,71,13,0,2,1,384,1531
5,71,14,0,1,1,421,1532
5,71,15,0,1,1,378,1533
5,71,16,0,2,1,407,1534
5,71,17,0,2,1,461,1535
5,71,18,0,1,1,330,1536
5,71,19,0,1,1,343,1537
5,71,20,0,2,1,413,1538
5,71,21,0,2,1,402,1539
5,71,22,0,1,1,367,1540
6,2,1,1,2,1,423,1
6,2,4,2,2,1,439,4
6,2,10,1,1,1,613,10
6,2,22,2,1,1,474,22
6,3,9,1,2,1,365,31
6,3,15,2,1,1,413,37
6,3,18,1,1,1,373,40
6,4,9,1,2,1,462,53
6,4,12,2,1,1,529,56
6,4,18,1,1,1,412,62
6,4,20,2,1,0,183,64
6,5,6,1,2,1,431,72
6,5,9,1,1,1,335,75
6,5,16,2,2,1,532,82
6,6,4,1,2,1,333,92
6,6,9,1,1,1,357,97
6,6,21,2,2,1,661,109
6,7,4,1,2,1,273,114
6,7,7,1,1,1,349,117
6,7,14,2,2,1,501,124
6,7,16,2,1,1,445,126
6,8,1,0,2,1,548,133
6,8,2,0,1,1,613,134
6,8,3,0,1,1,631,135
6,8,4,0,2,1,284,136
6,8,6,0,2,1,485,138
6,8,7,0,2,1,281,139
6,8,8,0,1,1,287,140
6,8,9,0,2,1,252,141
6,8,10,0,1,1,337,142
6,8,11,0,1,1,482,143
6,8,12,0,1,1,428,144
6,8,13,0,2,1,353,145
6,8,14,0,1,0,271,146
6,8,15,0,1,1,346,147
6,8,16,0,1,1,399,148
6,8,17,0,2,1,372,149
6,8,18,0,1,1,434,150
6,8,19,0,1,1,399,151
6,8,20,0,2,1,380,152
6,8,21,0,2,1,489,153
6,8,22,0,1,1,431,154
6,9,4,1,2,1,305,158
6,9,7,1,1,1,266,161
6,9,16,2,1,1,695,170
6,10,7,1,1,1,265,183
6,10,12,2,2,0,244,188
6,10,13,1,2,1,507,189
6,11,2,2,1,1,477,200
6,11,14,2,2,1,575,212
6,11,15,1,2,1,460,213
6,11,18,1,1,1,268,216
6,12,2,1,1,1,222,222
6,12,8,1,2,1,311,228
6,12,18,2,1,0,353,238
6,12,19,2,1,1,719,239
6,13,2,2,2,0,243,244
6,13,4,2,1,0,284,246
6,13,6,1,1,1,324,248
6,13,19,1,2,1,302,261
6,14,9,2,1,1,629,273
6,14,16,1,1,1,314,280
6,14,17,2,1,0,267,281
6,14,21,1,2,1,298,285
6,15,1,0,1,1,340,287
6,15,2,0,1,1,497,288
6,15,3,0,1,1,410,289
6,15,4,0,2,1,364,290
6,15,5,0,2,1,505,291
6,15,6,0,2,1,462,292
6,15,7,0,2,1,483,293
6,15,8,0,2,1,569,294
6,15,9,0,2,1,510,295
6,15,10,0,2,1,531,296
6,15,11,0,1,1,489,297
6,15,12,0,1,1,494,298
6,15,13,0,1,1,476,299
6,15,14,0,2,1,428,300
6,15,15,0,1,1,486,301
6,15,16,0,2,1,422,302
6,15,17,0,1,1,377,303
6,15,18,0,1,1,422,304
6,15,19,0,1,1,315,305
6,15,20,0,1,1,448,306
6,15,21,0,2,1,485,307
6,15,22,0,2,1,411,308
6,16,3,1,1,1,431,311
6,16,9,1,2,1,447,317
6,16,21,2,1,1,472,329
6,17,2,2,2,1,435,332
6,17,3,2,1,1,472,333
6,17,9,1,2,1,372,339
6,17,11,1,1,1,308,341
6,18,2,1,1,1,253,354
6,18,9,1,2,1,330,361
6,18,11,2,1,1,723,363
6,18,18,2,1,0,236,370
6,19,6,2,1,1,553,380
6,19,11,1,1,1,555,385
6,19,14,2,2,1,571,388
6,19,20,1,2,1,294,394
6,20,1,2,2,1,639,397
6,20,3,1,2,1,294,399
6,20,7,1,1,1,329,403
6,20,11,2,1,1,546,407
6,21,1,2,1,1,669,419
6,21,17,1,2,1,307,435
6,21,18,1,1,1,263,436
6,22,1,0,1,1,385,441
6,22,2,0,2,0,263,442
6,22,3,0,1,0,314,443
6,22,4,0,1,1,518,444
6,22,5,0,1,1,507,445
6,22,6,0,2,1,378,446
6,22,7,0,2,1,518,447
6,22,8,0,2,1,454,448
6,22,9,0,2,1,464,449
6,22,10,0,2,1,390,450
6,22,11,0,1,1,451,451
6,22,12,0,1,1,392,452
6,22,13,0,2,1,494,453
6,22,14,0,2,1,451,454
6,22,15,0,1,1,464,455
6,22,16,0,1,1,356,456
6,22,17,0,1,1,337,457
6,22,18,0,1,1,306,458
6,22,19,0,2,1,476,459
6,22,20,0,2,1,449,460
6,22,21,0,2,1,322,461
6,22,22,0,1,1,436,462
6,23,8,1,1,1,445,470
6,23,12,1,2,1,322,474
6,23,15,2,2,1,434,477
6,23,22,2,1,1,493,484
6,24,13,1,1,1,579,497
6,24,15,2,1,1,718,499
6,24,16,2,2,1,474,500
6,24,22,1,2,1,314,506
6,25,3,2,2,1,666,509
6,25,6,1,1,1,274,512
6,25,7,1,2,1,119,513
6,25,13,2,2,0,230,519
6,26,6,2,1,0,301,534
6,26,10,1,2,1,504,538
6,26,14,1,1,1,221,542
6,26,16,2,2,0,248,544
6,27,1,1,2,1,299,551
6,27,6,2,2,1,581,556
6,27,8,2,2,0,261,558
6,27,9,1,1,1,361,559
6,28,7,2,2,0,260,579
6,28,10,1,1,1,289,582
6,28,16,1,2,1,295,588
6,29,1,0,1,1,346,595
6,29,2,0,1,1,344,596
6,29,3,0,1,1,525,597
6,29,4,0,2,1,394,598
6,29,5,0,1,1,571,599
6,29,6,0,2,1,381,600
6,29,7,0,2,1,482,601
6,29,8,0,2,1,383,602
6,29,9,0,1,1,501,603
6,29,10,0,1,1,354,604
6,29,11,0,1,1,472,605
6,29,12,0,1,1,469,606
6,29,13,0,2,1,402,607
6,29,14,0,2,1,559,608
6,29,15,0,1,1,416,609
6,29,16,0,2,1,450,610
6,29,17,0,2,1,511,611
6,29,18,0,1,1,456,612
6,29,19,0,2,1,442,613
6,29,20,0,1,1,391,614
6,29,21,0,2,1,468,615
6,29,22,0,2,1,402,616
6,30,1,2,2,1,659,617
6,30,6,2,2,0,291,622
6,30,8,1,1,1,487,624
6,30,21,1,2,1,201,637
6,31,1,1,1,1,277,639
6,31,7,1,2,1,298,645
6,31,8,2,1,0,284,646
6,31,9,2,1,1,650,647
6,32,3,2,1,0,199,663
6,32,4,2,1,1,606,664
6,32,8,1,1,1,259,668
6,32,18,1,2,1,389,678
6,33,1,2,2,0,286,683
6,33,15,2,2,1,669,697
6,33,19,1,1,1,281,701
6,33,22,1,2,1,336,704
6,34,4,1,1,1,171,708
6,34,5,2,1,0,172,709
6,34,18,1,2,1,275,722
6,34,20,2,1,1,526,724
6,35,2,2,1,0,275,728
6,35,18,1,1,1,300,744
6,35,21,1,2,1,330,747
6,36,1,0,1,1,407,749
6,36,2,0,2,1,412,750
6,36,3,0,2,1,448,751
6,36,4,0,2,1,454,752
6,36,5,0,2,1,387,753
6,36,6,0,2,1,289,754
6,36,7,0,2,1,289,755
6,36,8,0,2,1,251,756
6,36,9,0,1,1,505,757
6,36,10,0,1,1,326,758
6,36,11,0,1,0,259,759
6,36,12,0,1,1,390,760
6,36,13,0,1,1,444,761
6,36,14,0,1,1,360,762
6,36,15,0,1,1,366,763
6,36,16,0,1,1,371,764
6,36,17,0,2,1,417,765
6,36,18,0,2,1,435,766
6,36,19,0,1,1,451,767
6,36,20,0,1,1,481,768
6,36,21,0,2,1,414,769
6,36,22,0,1,1,339,770
6,37,3,1,2,1,303,773
6,37,4,2,1,0,183,774
6,37,5,1,1,1,346,775
6,37,22,2,2,0,756,792
6,38,6,1,2,1,326,798
6,38,11,2,1,0,256,803
6,38,13,1,1,1,303,805
6,38,22,2,2,0,277,814
6,39,3,1,1,1,305,817
6,39,7,2,1,1,446,821
6,39,18,2,1,0,336,832
6,39,22,1,2,1,379,836
6,40,6,1,2,1,313,842
6,40,7,1,1,1,238,843
6,40,10,2,2,1,463,846
6,40,15,2,1,1,518,851
6,41,11,1,1,1,400,869
6,41,14,2,2,1,526,872
6,41,15,1,2,1,394,873
6,41,18,2,1,1,544,876
6,42,2,2,2,0,226,882
6,42,9,1,1,1,323,889
6,42,12,2,1,0,323,892
6,42,13,1,2,1,470,893
6,43,1,0,2,1,518,903
6,43,2,0,1,1,363,904
6,43,3,0,1,1,457,905
6,43,4,0,2,1,438,906
6,43,5,0,1,1,387,907
6,43,6,0,1,1,328,908
6,43,7,0,1,1,310,909
6,43,8,0,1,1,307,910
6,43,9,0,1,0,333,911
6,43,10,0,1,1,339,912
6,43,11,0,2,1,396,913
6,43,12,0,2,1,340,914
6,43,13,0,2,1,372,915
6,43,14,0,2,1,366,916
6,43,15,0,2,1,355,917
6,43,16,0,2,0,275,918
6,43,17,0,2,1,423,919
6,43,18,0,1,1,460,920
6,43,19,0,2,1,409,921
6,43,20,0,1,1,447,922
6,43,21,0,2,1,459,923
6,43,22,0,1,1,433,924
6,44,9,2,1,1,502,933
6,44,14,1,1,1,331,938
6,44,15,2,2,1,640,939
6,44,19,1,2,1,277,943
6,45,6,1,1,1,247,952
6,45,14,1,2,1,289,960
6,45,15,2,2,0,247,961
6,45,18,2,1,0,244,964
6,46,10,1,1,1,257,978
6,46,11,1,2,1,264,979
6,46,15,2,2,1,444,983
6,46,16,2,2,0,339,984
6,47,4,2,1,0,275,994
6,47,5,1,1,1,254,995
6,47,20,2,2,0,313,1010
6,47,21,1,2,1,340,1011
6,48,2,1,2,1,278,1014
6,48,5,2,2,1,454,1017
6,48,9,1,1,1,283,1021
6,48,22,2,2,0,246,1034
6,49,11,1,2,1,299,1045
6,49,15,1,1,1,396,1049
6,49,17,2,2,1,671,1051
6,49,20,2,2,0,271,1054
6,50,1,0,2,1,526,1057
6,50,2,0,1,1,483,1058
6,50,3,0,2,0,432,1059
6,50,4,0,2,1,536,1060
6,50,5,0,2,1,512,1061
6,50,6,0,1,1,452,1062
6,50,7,0,1,1,371,1063
6,50,8,0,2,1,408,1064
6,50,9,0,2,1,398,1065
6,50,10,0,2,1,363,1066
6,50,11,0,2,0,272,1067
6,50,12,0,1,1,379,1068
6,50,13,0,2,1,494,1069
6,50,14,0,1,1,406,1070
6,50,15,0,2,1,396,1071
6,50,16,0,2,0,288,1072
6,50,17,0,1,1,596,1073
6,50,18,0,2,1,385,1074
6,50,19,0,2,1,478,1075
6,50,20,0,2,1,452,1076
6,50,21,0,1,1,425,1077
6,50,22,0,1,1,446,1078
6,51,6,2,1,0,224,1084
6,51,16,1,2,1,321,1094
6,51,19,1,1,1,345,1097
6,51,20,2,1,1,586,1098
6,52,9,2,1,1,544,1109
6,52,10,1,1,1,309,1110
6,52,15,2,1,0,309,1115
6,52,21,1,2,1,285,1121
6,53,4,2,1,1,508,1126
6,53,5,1,2,1,314,1127
6,53,16,2,1,0,246,1138
6,53,19,1,1,1,235,1141
6,54,3,2,1,0,214,1147
6,54,5,2,2,0,276,1149
6,54,18,1,1,1,272,1162
6,54,19,1,2,1,309,1163
6,55,6,1,2,1,317,1172
6,55,11,2,1,0,266,1177
6,55,12,1,1,1,323,1178
6,56,2,2,1,1,528,1190
6,56,10,1,1,1,298,1198
6,56,19,1,2,1,314,1207
6,56,21,2,2,1,556,1209
6,57,1,0,2,1,643,1211
6,57,2,0,1,1,416,1212
6,57,3,0,1,1,413,1213
6,57,4,0,2,1,355,1214
6,57,5,0,2,1,543,1215
6,57,6,0,1,1,389,1216
6,57,7,0,2,1,402,1217
6,57,8,0,1,1,351,1218
6,57,9,0,1,1,413,1219
6,57,10,0,2,1,418,1220
6,57,11,0,2,1,432,1221
6,57,12,0,1,1,429,1222
6,57,13,0,2,1,322,1223
6,57,14,0,2,1,434,1224
6,57,15,0,2,1,509,1225
6,57,16,0,1,1,399,1226
6,57,17,0,1,1,388,1227
6,57,18,0,1,1,373,1228
6,57,19,0,1,1,378,1229
6,57,20,0,2,1,440,1230
6,57,21,0,1,1,514,1231
6,57,22,0,2,1,513,1232
6,58,1,2,1,1,603,1233
6,58,10,1,2,1,339,1242
6,58,12,2,2,1,493,1244
6,58,20,1,1,1,315,1252
6,59,3,1,2,1,304,1257
6,59,5,2,1,0,300,1259
6,59,9,2,2,0,230,1263
6,59,21,1,2,0,523,1275
6,60,12,2,2,0,289,1288
6,60,13,2,2,1,628,1289
6,60,15,1,1,1,326,1291
6,60,22,1,2,1,353,1298
6,61,1,2,2,1,605,1299
6,61,9,1,1,1,226,1307
6,61,11,1,2,1,378,1309
6,61,12,2,1,1,512,1310
6,62,11,2,2,1,488,1331
6,62,13,1,1,1,291,1333
6,62,17,2,1,1,488,1337
6,62,21,1,2,1,291,1341
6,63,6,1,2,1,224,1348
6,63,16,2,2,1,618,1358
6,63,21,2,2,0,291,1363
6,63,22,1,1,1,581,1364
6,64,1,0,1,1,534,1365
6,64,2,0,1,1,564,1366
6,64,3,0,1,1,481,1367
6,64,4,0,2,1,382,1368
6,64,5,0,1,1,516,1369
6,64,6,0,1,1,448,1370
6,64,7,0,1,1,430,1371
6,64,8,0,2,1,427,1372
6,64,9,0,2,1,328,1373
6,64,10,0,2,1,493,1374
6,64,11,0,1,1,451,1375
6,64,12,0,1,1,398,1376
6,64,13,0,1,0,341,1377
6,64,14,0,1,1,411,1378
6,64,15,0,2,1,398,1379
6,64,16,0,2,1,347,1380
6,64,17,0,2,1,342,1381
6,64,18,0,2,1,318,1382
6,64,19,0,1,1,459,1383
6,64,20,0,2,1,424,1384
6,64,21,0,2,1,390,1385
6,64,22,0,1,1,506,1386
6,65,9,1,2,1,346,1395
6,65,17,1,1,1,269,1403
6,65,18,2,1,0,206,1404
6,65,19,2,2,0,276,1405
6,66,2,1,1,1,305,1410
6,66,11,2,1,0,234,1419
6,66,12,2,2,0,661,1420
6,66,18,1,2,1,572,1426
6,67,2,1,2,1,326,1432
6,67,5,2,2,0,285,1435
6,67,7,1,1,1,358,1437
6,67,20,2,1,0,251,1450
6,68,1,1,2,1,426,1453
6,68,3,2,1,0,284,1455
6,68,5,1,1,1,364,1457
6,68,13,2,2,0,253,1465
6,69,4,2,1,1,537,1478
6,69,6,1,1,1,275,1480
6,69,8,2,2,1,475,1482
6,69,21,1,2,1,328,1495
6,70,1,1,2,1,447,1497
6,70,3,1,1,1,373,1499
6,70,4,2,1,0,250,1500
6,70,11,2,2,0,258,1507
6,71,1,0,1,1,460,1519
6,71,2,0,1,1,521,1520
6,71,3,0,2,1,438,1521
6,71,4,0,2,1,411,1522
6,71,5,0,2,1,401,1523
6,71,6,0,1,1,510,1524
6,71,7,0,1,1,404,1525
6,71,8,0,1,1,326,1526
6,71,9,0,1,0,294,1527
6,71,10,0,1,1,449,1528
6,71,11,0,2,1,399,1529
6,71,12,0,1,1,436,1530
6,71,13,0,1,1,453,1531
6,71,14,0,2,1,453,1532
6,71,15,0,2,1,452,1533
6,71,16,0,2,1,416,1534
6,71,17,0,1,1,446,1535
6,71,18,0,2,1,411,1536
6,71,19,0,2,1,377,1537
6,71,20,0,1,1,435,1538
6,71,21,0,1,1,419,1539
6,71,22,0,2,1,432,1540
