vp	ss	bl	tr	practice	rd	form	task	primeduration	blankduration	maskduration	targetduration	void	target_dir	mask_type	prime_type	corresp	resp	respac	resperr	rt	TrialNr
1	1	1	1	1	11	1	1	0,01339253	0,05355228	0,09371575	0,0937163	1	2	1	0	2	2	1	0	423	0
1	1	1	2	1	11	1	1	0,01339103	0,01338054	0,09372728	0,09371082	1	1	2	2	1	1	1	0	465	0
1	1	1	3	1	11	1	1	0,01338998	0,01338296	0,09372637	0,09371518	1	2	2	2	2	2	1	0	363	0
1	1	1	4	1	11	1	1	0,01338583	0,01339628	0,09371112	0,09372005	1	2	3	2	2	2	1	0	564	0
1	1	1	5	1	11	1	1	0,01338552	0,01339805	0,09371656	0,09371277	1	1	0	1	1	1	1	0	417	0
1	1	1	6	1	11	1	1	0,01339493	0,01338412	0,09371373	0,09371612	1	1	3	2	1	1	1	0	623	0
1	1	1	7	1	11	1	1	0,01339214	0,01338888	0,09371386	0,09372729	1	2	0	1	2	2	1	0	555	0
1	1	1	8	1	11	1	1	0,01338826	0,0133876	0,09371714	0,0937239	1	2	1	1	2	2	1	0	587	0
1	1	1	9	1	11	1	1	0,01339064	0,0133909	0,09371767	0,09371904	1	1	0	2	1	1	1	0	607	0
1	1	1	10	1	11	1	1	0,01338576	0,01338661	0,09371687	0,0937132	1	1	1	2	1	1	1	0	580	0
1	1	1	11	1	11	1	1	0,0133912	0,01338585	0,09372114	0,09371688	1	2	3	1	2	2	1	0	625	0
1	1	1	12	1	11	1	1	0,01338748	0,01339517	0,09371611	0,09370779	1	1	2	1	1	1	1	0	646	0
1	1	1	13	1	11	1	1	0,01338945	0,01338607	0,09371325	0,09372298	1	2	3	0	2	2	1	0	507	0
1	1	1	14	1	11	1	1	0,01339763	0,01338065	0,09372482	0,09371204	1	1	3	0	1	1	1	0	416	0
1	1	1	15	1	11	1	1	0,01338882	0,01338046	0,09371628	0,09371813	1	1	2	0	1	1	1	0	494	0
1	1	1	16	1	11	1	1	0,01338448	0,0133843	0,09371616	0,09372054	1	1	1	1	1	1	1	0	390	0
1	1	1	17	1	11	1	1	0,01339296	0,01338966	0,09370921	0,09371746	1	1	1	0	1	1	1	0	392	0
1	1	1	18	1	11	1	1	0,01338632	0,01338964	0,09371217	0,0937225	1	2	0	2	2	2	1	0	581	0
1	1	1	19	1	11	1	1	0,01338871	0,01339448	0,09370873	0,09370813	1	2	2	0	2	2	1	0	467	0
1	1	1	20	1	11	1	1	0,01338706	0,01338398	0,09372272	0,09371614	1	2	2	1	2	2	1	0	467	0
1	1	1	21	1	11	1	1	0,01338431	0,01338103	0,09372482	0,0937179	1	1	3	1	1	1	1	0	478	0
1	1	1	22	1	11	1	1	0,01338562	0,01339079	0,09371106	0,09371651	1	2	1	2	2	2	1	0	331	0
1	1	2	1	0	11	1	1	0,01338867	0,01338988	0,09371364	0,09371145	1	1	2	0	1	1	1	0	499	1
1	1	2	2	0	11	1	1	0,01338934	0,01337897	0,09372826	0,09371393	1	2	1	1	2	2	1	0	386	2
1	1	2	3	0	11	1	1	0,01339145	0,01339126	0,09371619	0,09371377	1	1	2	2	1	1	1	0	370	3
1	1	2	4	0	11	1	1	0,01338827	0,01339171	0,09371774	0,0937223	1	2	0	1	2	2	1	0	466	4
1	1	2	5	0	11	1	1	0,0133849	0,01338592	0,09372039	0,0937204	1	1	0	2	1	1	1	0	576	5
1	1	2	6	0	11	1	1	0,01338962	0,01339761	0,09371257	0,09370605	1	2	3	0	2	2	1	0	438	6
1	1	2	7	0	11	1	1	0,01338011	0,0133954	0,09370911	0,09370784	1	2	2	2	2	2	1	0	402	7
1	1	2	8	0	11	1	1	0,01339842	0,01338438	0,09370864	0,09371515	1	1	1	1	1	1	1	0	384	8
1	1	2	9	0	11	1	1	0,01338132	0,01339578	0,09370812	0,09371669	1	2	3	2	2	2	1	0	413	9
1	1	2	10	0	11	1	1	0,0133852	0,01338718	0,09371454	0,09371415	1	1	1	2	1	1	1	0	347	10
1	1	2	11	0	11	1	1	0,01338785	0,01339178	0,09371663	0,09371845	1	1	3	0	1	2	0	1	288	11
1	1	2	12	0	11	1	1	0,01339184	0,01338836	0,09371881	0,09372129	1	2	1	0	2	2	1	0	467	12
1	1	2	13	0	11	1	1	0,0133817	0,01339506	0,09371784	0,0937202	1	2	3	1	2	2	1	0	464	13
1	1	2	14	0	11	1	1	0,01338707	0,01339683	0,09370925	0,09371683	1	2	2	1	2	2	1	0	454	14
1	1	2	15	0	11	1	1	0,01338433	0,01339239	0,09372182	0,09372089	1	1	0	1	1	1	1	0	523	15
1	1	2	16	0	11	1	1	0,01338979	0,01338308	0,09371504	0,09371647	1	1	3	2	1	1	1	0	512	16
1	1	2	17	0	11	1	1	0,01338826	0,01338484	0,0937195	0,09371495	1	2	0	2	2	2	1	0	573	17
1	1	2	18	0	11	1	1	0,01337925	0,01339138	0,09371764	0,09372165	1	1	3	1	1	1	1	0	450	18
1	1	2	19	0	11	1	1	0,01338972	0,013384	0,09371798	0,09372093	1	2	2	0	2	2	1	0	463	19
1	1	2	20	0	11	1	1	0,01338768	0,01339281	0,09372168	0,0937126	1	1	2	1	1	1	1	0	398	20
1	1	2	21	0	11	1	1	0,01337635	0,01339159	0,09371731	0,09372034	1	2	1	2	2	2	1	0	410	21
1	1	2	22	0	11	1	1	0,01338485	0,01339316	0,09371579	0,09371532	1	1	1	0	1	1	1	0	576	22
1	1	3	1	0	11	1	1	0,01338626	0,01338943	0,09371297	0,0937281	1	2	2	0	2	2	1	0	413	23
1	1	3	2	0	11	1	1	0,0133832	0,01339091	0,09371549	0,09372009	1	1	1	2	1	1	1	0	490	24
1	1	3	3	0	11	1	1	0,0133955	0,01338144	0,09371846	0,09372412	1	2	2	1	2	2	1	0	463	25
1	1	3	4	0	11	1	1	0,01338562	0,01339258	0,0937232	0,09370975	1	2	3	1	2	2	1	0	452	26
1	1	3	5	0	11	1	1	0,01339105	0,01338568	0,09372196	0,09371745	1	2	3	2	2	2	1	0	505	27
1	1	3	6	0	11	1	1	0,01338633	0,01338864	0,09372037	0,09371608	1	1	3	2	1	1	1	0	407	28
1	1	3	7	0	11	1	1	0,01338946	0,01339587	0,0937111	0,09371165	1	2	0	1	2	2	1	0	444	29
1	1	3	8	0	11	1	1	0,01338881	0,01339412	0,09371555	0,09371645	1	2	1	2	2	2	1	0	410	30
1	1	3	9	0	11	1	1	0,01339149	0,01339287	0,09371099	0,09371216	1	2	0	2	2	2	1	0	623	31
1	1	3	10	0	11	1	1	0,01338624	0,01339079	0,09371434	0,09371754	1	2	1	1	2	2	1	0	588	32
1	1	3	11	0	11	1	1	0,01338756	0,01339164	0,09371834	0,09371927	1	1	0	2	1	1	1	0	497	33
1	1	3	12	0	11	1	1	0,01339205	0,01338297	0,09372327	0,09371394	1	1	2	1	1	1	1	0	502	34
1	1	3	13	0	11	1	1	0,01339251	0,01337675	0,09371711	0,09371644	1	1	1	0	1	1	1	0	636	35
1	1	3	14	0	11	1	1	0,0133884	0,01338859	0,09372324	0,09371236	1	2	2	2	2	2	1	0	394	36
1	1	3	15	0	11	1	1	0,01338742	0,0133873	0,09371332	0,09370922	1	1	3	1	1	1	1	0	462	37
1	1	3	16	0	11	1	1	0,01338295	0,01340005	0,09371224	0,09370845	1	2	1	0	2	2	1	0	332	38
1	1	3	17	0	11	1	1	0,01337783	0,01339772	0,09371109	0,09371618	1	1	2	0	1	1	1	0	345	39
1	1	3	18	0	11	1	1	0,01338923	0,01338752	0,09371619	0,09372527	1	1	2	2	1	1	1	0	446	40
1	1	3	19	0	11	1	1	0,01338054	0,01339597	0,09371206	0,09371313	1	1	0	1	1	1	1	0	411	41
1	1	3	20	0	11	1	1	0,01338398	0,01339747	0,09371153	0,09371578	1	1	3	0	1	1	1	0	393	42
1	1	3	21	0	11	1	1	0,0133964	0,01338704	0,09371454	0,09371091	1	2	3	0	2	2	1	0	510	43
1	1	3	22	0	11	1	1	0,01339041	0,01339267	0,09370933	0,09372807	1	1	1	1	1	1	1	0	397	44
1	1	4	1	0	11	1	1	0,01337999	0,01338552	0,09372812	0,09371295	1	1	3	2	1	1	1	0	412	45
1	1	4	2	0	11	1	1	0,01338881	0,01339201	0,09370683	0,09371492	1	2	2	0	2	2	1	0	345	46
1	1	4	3	0	11	1	1	0,01338084	0,0133966	0,09371956	0,09371227	1	2	2	2	2	2	1	0	439	47
1	1	4	4	0	11	1	1	0,01337985	0,01339879	0,09371256	0,093716	1	1	0	2	1	1	1	0	436	48
1	1	4	5	0	11	1	1	0,01338861	0,01339113	0,09371498	0,09371554	1	1	2	0	1	1	1	0	366	49
1	1	4	6	0	11	1	1	0,01338831	0,01339686	0,09371505	0,09371809	1	2	3	2	2	2	1	0	422	50
1	1	4	7	0	11	1	1	0,01337965	0,01339889	0,09371396	0,09371809	1	1	3	1	1	1	1	0	324	51
1	1	4	8	0	11	1	1	0,01338346	0,01338762	0,09372481	0,09371954	1	1	2	1	1	1	1	0	419	52
1	1	4	9	0	11	1	1	0,01339468	0,01338429	0,09371791	0,09371686	1	2	0	2	2	2	1	0	439	53
1	1	4	10	0	11	1	1	0,01339545	0,01338543	0,0937096	0,09371698	1	1	1	2	1	1	1	0	428	54
1	1	4	11	0	11	1	1	0,01339095	0,01338142	0,09372527	0,0937142	1	2	2	1	2	2	1	0	393	55
1	1	4	12	0	11	1	1	0,0133881	0,01338182	0,09372399	0,09371282	1	1	2	2	1	1	1	0	350	56
1	1	4	13	0	11	1	1	0,01338809	0,01338856	0,09372495	0,09371621	1	2	0	1	2	2	1	0	307	57
1	1	4	14	0	11	1	1	0,01339199	0,01337935	0,09372318	0,09371949	1	1	0	1	1	1	1	0	329	58
1	1	4	15	0	11	1	1	0,01339027	0,01337792	0,09371864	0,09371525	1	2	1	0	2	2	1	0	494	59
1	1	4	16	0	11	1	1	0,01338704	0,01338868	0,09372438	0,09370993	1	1	1	1	1	1	1	0	348	60
1	1	4	17	0	11	1	1	0,01339036	0,0133864	0,09372008	0,09371695	1	2	3	1	2	2	1	0	473	61
1	1	4	18	0	11	1	1	0,01339219	0,01339606	0,09371307	0,09371471	1	1	3	0	1	1	1	0	366	62
1	1	4	19	0	11	1	1	0,01338383	0,01339244	0,09372219	0,09372299	1	2	1	1	2	2	1	0	436	63
1	1	4	20	0	11	1	1	0,0133824	0,01338573	0,09371675	0,09371912	1	2	1	2	2	2	1	0	448	64
1	1	4	21	0	11	1	1	0,01337781	0,01338803	0,09371752	0,09371177	1	2	3	0	2	2	1	0	454	65
1	1	4	22	0	11	1	1	0,01338845	0,01337763	0,09372115	0,09372214	1	1	1	0	1	1	1	0	331	66
1	1	5	1	0	11	1	1	0,0133841	0,01338253	0,09372437	0,09371879	1	2	2	2	2	2	1	0	340	67
1	1	5	2	0	11	1	1	0,0133887	0,01339146	0,09371453	0,09371511	1	1	2	0	1	1	1	0	337	68
1	1	5	3	0	11	1	1	0,01339944	0,01338172	0,09371118	0,09371354	1	1	1	0	1	1	1	0	351	69
1	1	5	4	0	11	1	1	0,01338472	0,01339489	0,09371202	0,09370916	1	2	1	0	2	2	1	0	364	70
1	1	5	5	0	11	1	1	0,01338481	0,01339023	0,09371355	0,09371116	1	1	3	2	1	1	1	0	369	71
1	1	5	6	0	11	1	1	0,01339921	0,01337962	0,0937177	0,09372453	1	2	1	2	2	2	1	0	335	72
1	1	5	7	0	11	1	1	0,01338758	0,0133927	0,09371639	0,09372216	1	2	0	2	2	1	0	1	260	73
1	1	5	8	0	11	1	1	0,01338725	0,01339342	0,09371332	0,09371318	1	2	0	1	2	2	1	0	383	74
1	1	5	9	0	11	1	1	0,01338736	0,0133931	0,09371166	0,09372306	1	1	1	1	1	1	1	0	372	75
1	1	5	10	0	11	1	1	0,01338492	0,01339038	0,09371549	0,09370959	1	1	3	0	1	1	1	0	426	76
1	1	5	11	0	11	1	1	0,01339343	0,01338044	0,09372306	0,09371284	1	2	3	1	2	2	1	0	463	77
1	1	5	12	0	11	1	1	0,01338218	0,01339207	0,0937134	0,09371641	1	1	3	1	1	1	1	0	404	78
1	1	5	13	0	11	1	1	0,01338933	0,01338872	0,09371904	0,09372433	1	2	2	0	2	2	1	0	418	79
1	1	5	14	0	11	1	1	0,01338807	0,01339346	0,09370691	0,0937259	1	2	3	0	2	2	1	0	382	80
1	1	5	15	0	11	1	1	0,0133826	0,01339133	0,09371918	0,09371652	1	2	2	1	2	2	1	0	412	81
1	1	5	16	0	11	1	1	0,01338307	0,01339123	0,09371402	0,09372926	1	1	2	2	1	1	1	0	417	82
1	1	5	17	0	11	1	1	0,01338864	0,01339435	0,0937131	0,09371993	1	1	1	2	1	1	1	0	414	83
1	1	5	18	0	11	1	1	0,01339069	0,0133825	0,09371547	0,09372213	1	1	0	2	1	1	1	0	579	84
1	1	5	19	0	11	1	1	0,01338596	0,01338334	0,09372257	0,09372479	1	1	0	1	1	1	1	0	481	85
1	1	5	20	0	11	1	1	0,01339264	0,01338389	0,09371507	0,09371734	1	1	2	1	1	1	1	0	494	86
1	1	5	21	0	11	1	1	0,01338626	0,0133971	0,09371656	0,0937196	1	2	3	2	2	2	1	0	483	87
1	1	5	22	0	11	1	1	0,01338527	0,01339291	0,09371079	0,09371661	1	2	1	1	2	2	1	0	481	88
1	1	6	1	0	11	1	1	0,01337735	0,01339784	0,09371361	0,09371958	1	1	3	0	1	1	1	0	476	89
1	1	6	2	0	11	1	1	0,01339335	0,01338334	0,09371322	0,09371501	1	2	1	1	2	2	1	0	417	90
1	1	6	3	0	11	1	1	0,01339436	0,01338226	0,0937144	0,09372387	1	2	1	2	2	2	1	0	463	91
1	1	6	4	0	11	1	1	0,01339271	0,01337881	0,09371946	0,09371516	1	1	0	1	1	1	1	0	476	92
1	1	6	5	0	11	1	1	0,0133872	0,01338784	0,09370928	0,09372238	1	2	0	1	2	2	1	0	457	93
1	1	6	6	0	11	1	1	0,01338023	0,0133965	0,09370978	0,09371644	1	1	2	2	1	1	1	0	454	94
1	1	6	7	0	11	1	1	0,01338155	0,01339165	0,09371244	0,09371849	1	2	2	1	2	2	1	0	451	95
1	1	6	8	0	11	1	1	0,0133849	0,01339655	0,09371597	0,09371586	1	1	2	0	1	1	1	0	417	96
1	1	6	9	0	11	1	1	0,01338928	0,01338914	0,09371349	0,09372141	1	1	0	2	1	2	0	1	318	97
1	1	6	10	0	11	1	1	0,01338385	0,0133943	0,09371544	0,0937155	1	2	3	2	2	2	1	0	481	98
1	1	6	11	0	11	1	1	0,01339174	0,01338776	0,09372433	0,09371312	1	2	2	0	2	2	1	0	511	99
1	1	6	12	0	11	1	1	0,01338117	0,01339167	0,09371323	0,09371367	1	1	1	0	1	1	1	0	396	100
1	1	6	13	0	11	1	1	0,01338976	0,01339063	0,09371477	0,09371848	1	2	3	0	2	2	1	0	457	101
1	1	6	14	0	11	1	1	0,01338694	0,0133901	0,09372024	0,093723	1	1	1	2	1	1	1	0	414	102
1	1	6	15	0	11	1	1	0,01339736	0,01337847	0,09371378	0,09372036	1	1	3	1	1	1	1	0	387	103
1	1	6	16	0	11	1	1	0,01338642	0,0133875	0,09372145	0,09371628	1	1	3	2	1	1	1	0	385	104
1	1	6	17	0	11	1	1	0,01339835	0,0133804	0,09371821	0,09371682	1	2	2	2	2	2	1	0	446	105
1	1	6	18	0	11	1	1	0,01339458	0,01338766	0,09371049	0,09371772	1	2	1	0	2	2	1	0	419	106
1	1	6	19	0	11	1	1	0,01338999	0,01338859	0,09371507	0,09371907	1	1	2	1	1	1	1	0	393	107
1	1	6	20	0	11	1	1	0,01338359	0,01339443	0,09371187	0,09371495	1	2	0	2	2	2	1	0	438	108
1	1	6	21	0	11	1	1	0,01338126	0,01338614	0,09371337	0,09372556	1	1	1	1	1	1	1	0	384	109
1	1	6	22	0	11	1	1	0,01338981	0,01338355	0,0937264	0,09371927	1	2	3	1	2	2	1	0	432	110
1	1	7	1	0	11	1	1	0,01338717	0,01339424	0,09371339	0,09370666	1	1	2	1	1	1	1	0	414	111
1	1	7	2	0	11	1	1	0,01338667	0,01338612	0,09372152	0,09371581	1	1	3	2	1	1	1	0	375	112
1	1	7	3	0	11	1	1	0,01339307	0,01337995	0,09371894	0,09372104	1	1	1	2	1	1	1	0	336	113
1	1	7	4	0	11	1	1	0,01339025	0,01338329	0,09371653	0,09372484	1	1	1	1	1	1	1	0	375	114
1	1	7	5	0	11	1	1	0,01339374	0,01338345	0,09372762	0,09372617	1	2	2	2	2	2	1	0	403	115
1	1	7	6	0	11	1	1	0,01338265	0,01339637	0,09370974	0,09371873	1	2	2	1	2	2	1	0	416	116
1	1	7	7	0	11	1	1	0,01338843	0,01338551	0,09371834	0,09371206	1	2	1	2	2	2	1	0	370	117
1	1	7	8	0	11	1	1	0,01339882	0,01337725	0,09372638	0,0937098	1	2	1	0	2	1	0	1	451	118
1	1	7	9	0	11	1	1	0,01339344	0,01337992	0,09371693	0,09371206	1	1	0	1	1	1	1	0	206	119
1	1	7	10	0	11	1	1	0,01338294	0,01339242	0,09371639	0,09371787	1	1	3	0	1	1	1	0	392	120
1	1	7	11	0	11	1	1	0,01339075	0,01338801	0,09371984	0,0937245	1	2	3	2	2	2	1	0	409	121
1	1	7	12	0	11	1	1	0,01338382	0,01338804	0,09371772	0,09371899	1	1	1	0	1	1	1	0	387	122
1	1	7	13	0	11	1	1	0,01338893	0,01338198	0,09372083	0,09371747	1	2	3	0	2	2	1	0	475	123
1	1	7	14	0	11	1	1	0,01339865	0,01338217	0,09372071	0,09372047	1	2	3	1	2	2	1	0	417	124
1	1	7	15	0	11	1	1	0,01339541	0,01338445	0,0937174	0,09371624	1	1	0	2	1	1	1	0	478	125
1	1	7	16	0	11	1	1	0,01339372	0,01338863	0,09371322	0,09371256	1	2	2	0	2	2	1	0	347	126
1	1	7	17	0	11	1	1	0,01339857	0,01337665	0,09372339	0,09370776	1	2	0	1	2	2	1	0	424	127
1	1	7	18	0	11	1	1	0,01338458	0,01339218	0,09371106	0,09370888	1	2	1	1	2	2	1	0	461	128
1	1	7	19	0	11	1	1	0,01338671	0,01339705	0,09371122	0,09371631	1	1	3	1	1	1	1	0	467	129
1	1	7	20	0	11	1	1	0,01339708	0,01338206	0,09371113	0,09372156	1	1	2	0	1	1	1	0	448	130
1	1	7	21	0	11	1	1	0,01339023	0,0133873	0,0937233	0,0937237	1	1	2	2	1	1	1	0	391	131
1	1	7	22	0	11	1	1	0,01338742	0,01338902	0,09371369	0,09371924	1	2	0	2	2	2	1	0	571	132
1	1	8	1	0	11	1	1	0,01338796	0,01337645	0,09372668	0,09371267	1	1	0	0	1	2	0	1	175	133
1	1	8	2	0	11	1	1	0,01337765	0,01339757	0,09371168	0,09371597	1	2	0	0	2	2	1	0	545	134
1	1	8	3	0	11	1	1	0,01338043	0,01338798	0,09371499	0,09371988	1	1	0	0	1	1	1	0	423	135
1	1	8	4	0	11	1	1	0,01338296	0,01339246	0,0937138	0,0937164	1	2	0	0	2	2	1	0	412	136
1	1	8	5	0	11	1	1	0,01339334	0,0133919	0,09370995	0,09371877	1	1	0	0	1	1	1	0	305	137
1	1	8	6	0	11	1	1	0,01339341	0,01338835	0,09371501	0,09372009	1	2	0	0	2	2	1	0	262	138
1	1	8	7	0	11	1	1	0,01338725	0,0133907	0,09372461	0,09371286	1	2	0	0	2	1	0	1	212	139
1	1	8	8	0	11	1	1	0,01338899	0,01338503	0,09371209	0,09371563	1	1	0	0	1	1	1	0	369	140
1	1	8	9	0	11	1	1	0,01338567	0,01338649	0,09371844	0,09371643	1	2	0	0	2	2	1	0	316	141
1	1	8	10	0	11	1	1	0,01338901	0,01338837	0,09372342	0,09372377	1	1	0	0	1	2	0	1	306	142
1	1	8	11	0	11	1	1	0,01338853	0,01338649	0,09372022	0,0937147	1	1	0	0	1	1	1	0	317	143
1	1	8	12	0	11	1	1	0,01339905	0,01338742	0,09371057	0,09371538	1	2	0	0	2	2	1	0	442	144
1	1	8	13	0	11	1	1	0,01338811	0,01338317	0,09372226	0,09371244	1	2	0	0	2	2	1	0	464	145
1	1	8	14	0	11	1	1	0,01339308	0,01337909	0,09371906	0,09371575	1	2	0	0	2	2	1	0	340	146
1	1	8	15	0	11	1	1	0,01337945	0,01338995	0,09371689	0,09371534	1	1	0	0	1	1	1	0	266	147
1	1	8	16	0	11	1	1	0,01338853	0,01339135	0,09372185	0,09371693	1	1	0	0	1	1	1	0	389	148
1	1	8	17	0	11	1	1	0,01339763	0,01337899	0,09372236	0,0937221	1	2	0	0	2	2	1	0	277	149
1	1	8	18	0	11	1	1	0,01339292	0,01338468	0,09371749	0,09371403	1	1	0	0	1	1	1	0	274	150
1	1	8	19	0	11	1	1	0,01339663	0,01338084	0,09372632	0,09371829	1	2	0	0	2	2	1	0	215	151
1	1	8	20	0	11	1	1	0,01339046	0,01338406	0,09372519	0,09371735	1	1	0	0	1	1	1	0	268	152
1	1	8	21	0	11	1	1	0,01339532	0,01338346	0,09371759	0,09371539	1	2	0	0	2	1	0	1	321	153
1	1	8	22	0	11	1	1	0,01338887	0,01339279	0,09371819	0,09371735	1	1	0	0	1	1	1	0	374	154
1	1	9	1	0	11	1	1	0,01339319	0,01339031	0,09371141	0,09371641	1	1	2	1	1	1	1	0	406	155
1	1	9	2	0	11	1	1	0,01338771	0,01338894	0,09371434	0,09371661	1	1	3	2	1	1	1	0	427	156
1	1	9	3	0	11	1	1	0,0133778	0,01339495	0,09371204	0,09371428	1	1	1	2	1	1	1	0	385	157
1	1	9	4	0	11	1	1	0,01339663	0,0133874	0,09370946	0,09372503	1	1	1	1	1	1	1	0	351	158
1	1	9	5	0	11	1	1	0,01338624	0,01338509	0,09371649	0,09371502	1	2	2	2	2	2	1	0	331	159
1	1	9	6	0	11	1	1	0,01338462	0,01339209	0,09370908	0,09372389	1	2	2	1	2	1	0	1	224	160
1	1	9	7	0	11	1	1	0,01338	0,01338809	0,09371313	0,09371642	1	2	1	2	2	2	1	0	444	161
1	1	9	8	0	11	1	1	0,01338608	0,01338889	0,09371871	0,09371313	1	2	1	0	2	2	1	0	425	162
1	1	9	9	0	11	1	1	0,01338362	0,01339824	0,09371376	0,0937166	1	1	0	1	1	1	1	0	342	163
1	1	9	10	0	11	1	1	0,01338612	0,01339448	0,09371455	0,09371609	1	1	3	0	1	1	1	0	390	164
1	1	9	11	0	11	1	1	0,01338421	0,01338885	0,09371562	0,09371786	1	2	3	2	2	2	1	0	375	165
1	1	9	12	0	11	1	1	0,01339069	0,01338683	0,09371023	0,0937253	1	1	1	0	1	1	1	0	326	166
1	1	9	13	0	11	1	1	0,0133839	0,01338552	0,09372039	0,09371565	1	2	3	0	2	2	1	0	387	167
1	1	9	14	0	11	1	1	0,01339253	0,01338428	0,09371508	0,09371904	1	2	3	1	2	2	1	0	401	168
1	1	9	15	0	11	1	1	0,01339093	0,01338666	0,09372402	0,09371679	1	1	0	2	1	1	1	0	406	169
1	1	9	16	0	11	1	1	0,01339139	0,01338275	0,09372333	0,09371578	1	2	2	0	2	2	1	0	332	170
1	1	9	17	0	11	1	1	0,01339199	0,01338695	0,09371326	0,09370781	1	2	0	1	2	2	1	0	378	171
1	1	9	18	0	11	1	1	0,01338632	0,01339099	0,09372024	0,09371518	1	2	1	1	2	2	1	0	406	172
1	1	9	19	0	11	1	1	0,01338543	0,01339035	0,09371367	0,09371339	1	1	3	1	1	1	1	0	419	173
1	1	9	20	0	11	1	1	0,0133837	0,0133894	0,09372019	0,09371396	1	1	2	0	1	1	1	0	374	174
1	1	9	21	0	11	1	1	0,0133925	0,01338258	0,09371685	0,09371973	1	1	2	2	1	1	1	0	325	175
1	1	9	22	0	11	1	1	0,01339147	0,01338193	0,09372256	0,09371558	1	2	0	2	2	2	1	0	435	176
1	1	10	1	0	11	1	1	0,01338951	0,01339056	0,09371544	0,09371396	1	1	3	2	1	1	1	0	379	177
1	1	10	2	0	11	1	1	0,01338856	0,01339911	0,09371735	0,0937213	1	1	3	0	1	1	1	0	393	178
1	1	10	3	0	11	1	1	0,01338052	0,01339115	0,0937329	0,09370843	1	2	3	1	2	2	1	0	374	179
1	1	10	4	0	11	1	1	0,01338442	0,01339136	0,0937207	0,09371691	1	1	1	1	1	1	1	0	380	180
1	1	10	5	0	11	1	1	0,01339451	0,01338492	0,09371821	0,09371163	1	2	2	2	2	2	1	0	345	181
1	1	10	6	0	11	1	1	0,01338938	0,01339198	0,09371618	0,09371685	1	2	2	0	2	2	1	0	422	182
1	1	10	7	0	11	1	1	0,01339372	0,01338125	0,09371573	0,0937131	1	2	0	2	2	2	1	0	515	183
1	1	10	8	0	11	1	1	0,01338266	0,01339228	0,09371253	0,09371688	1	2	3	2	2	2	1	0	400	184
1	1	10	9	0	11	1	1	0,01339047	0,01338767	0,09371826	0,09371744	1	1	2	0	1	1	1	0	366	185
1	1	10	10	0	11	1	1	0,01339005	0,01339137	0,0937082	0,09372187	1	1	0	2	1	2	0	1	651	186
1	1	10	11	0	11	1	1	0,01338417	0,01338316	0,09372086	0,09372001	1	1	3	1	1	1	1	0	375	187
1	1	10	12	0	11	1	1	0,01338412	0,01338821	0,09372004	0,09372343	1	2	2	1	2	2	1	0	451	188
1	1	10	13	0	11	1	1	0,01338747	0,01338673	0,09371987	0,09371162	1	2	1	2	2	2	1	0	441	189
1	1	10	14	0	11	1	1	0,01338156	0,01339821	0,09370656	0,09370883	1	1	0	1	1	1	1	0	270	190
1	1	10	15	0	11	1	1	0,01338344	0,01338988	0,09371597	0,09371358	1	1	1	0	1	1	1	0	396	191
1	1	10	16	0	11	1	1	0,01339147	0,01339562	0,09371231	0,09371615	1	1	2	1	1	1	1	0	393	192
1	1	10	17	0	11	1	1	0,01339353	0,01338137	0,09372573	0,09372439	1	2	1	0	2	2	1	0	367	193
1	1	10	18	0	11	1	1	0,01339638	0,01338505	0,09372352	0,09370729	1	2	3	0	2	2	1	0	395	194
1	1	10	19	0	11	1	1	0,01339542	0,01338379	0,09371789	0,09371709	1	1	1	2	1	1	1	0	400	195
1	1	10	20	0	11	1	1	0,01338867	0,01338731	0,09371975	0,09371941	1	2	0	1	2	2	1	0	358	196
1	1	10	21	0	11	1	1	0,01338491	0,01338459	0,09371865	0,09371428	1	2	1	1	2	2	1	0	444	197
1	1	10	22	0	11	1	1	0,01338515	0,01338915	0,09371495	0,09371391	1	1	2	2	1	1	1	0	354	198
1	1	11	1	0	11	1	1	0,01338927	0,01338335	0,09371279	0,09371587	1	1	0	2	1	1	1	0	531	199
1	1	11	2	0	11	1	1	0,0133955	0,01338305	0,09372581	0,09372076	1	2	2	2	2	2	1	0	401	200
1	1	11	3	0	11	1	1	0,01338905	0,01338871	0,09372064	0,09371606	1	1	2	2	1	1	1	0	342	201
1	1	11	4	0	11	1	1	0,01339256	0,01338682	0,09371601	0,09372088	1	1	1	1	1	1	1	0	411	202
1	1	11	5	0	11	1	1	0,0133853	0,013389	0,09371218	0,09371237	1	1	3	0	1	1	1	0	456	203
1	1	11	6	0	11	1	1	0,01338384	0,01339011	0,09371424	0,09371345	1	1	0	1	1	1	1	0	430	204
1	1	11	7	0	11	1	1	0,01338839	0,01338729	0,09372185	0,09370874	1	2	2	0	2	2	1	0	435	205
1	1	11	8	0	11	1	1	0,01339012	0,013381	0,09371961	0,09372288	1	2	3	0	2	2	1	0	472	206
1	1	11	9	0	11	1	1	0,01339163	0,01338867	0,09371951	0,09371741	1	2	3	2	2	2	1	0	396	207
1	1	11	10	0	11	1	1	0,01338261	0,01338594	0,09372578	0,09371472	1	2	1	2	2	2	1	0	419	208
1	1	11	11	0	11	1	1	0,0133933	0,0133933	0,09371337	0,09371912	1	1	2	0	1	1	1	0	408	209
1	1	11	12	0	11	1	1	0,01339179	0,0133879	0,0937138	0,09370931	1	2	1	1	2	2	1	0	437	210
1	1	11	13	0	11	1	1	0,01338675	0,01339419	0,09371187	0,09372346	1	2	1	0	2	2	1	0	411	211
1	1	11	14	0	11	1	1	0,01339312	0,01339291	0,0937067	0,09372269	1	1	2	1	1	1	1	0	432	212
1	1	11	15	0	11	1	1	0,01338558	0,01339299	0,09371303	0,09371778	1	1	1	0	1	1	1	0	389	213
1	1	11	16	0	11	1	1	0,01339437	0,01338545	0,09371519	0,09371305	1	2	0	1	2	2	1	0	330	214
1	1	11	17	0	11	1	1	0,01337881	0,013397	0,09371241	0,09372447	1	1	1	2	1	1	1	0	408	215
1	1	11	18	0	11	1	1	0,01338357	0,01339025	0,09371389	0,09371463	1	2	0	2	2	2	1	0	509	216
1	1	11	19	0	11	1	1	0,01338877	0,01339304	0,09371166	0,09371367	1	1	3	2	1	1	1	0	395	217
1	1	11	20	0	11	1	1	0,01338929	0,01339404	0,09370917	0,09372101	1	2	2	1	2	2	1	0	432	218
1	1	11	21	0	11	1	1	0,01338801	0,01338941	0,09371225	0,09370992	1	1	3	1	1	1	1	0	405	219
1	1	11	22	0	11	1	1	0,01338459	0,01339911	0,09371175	0,09370873	1	2	3	1	2	2	1	0	426	220
1	1	12	1	0	11	1	1	0,01338908	0,01339482	0,09371952	0,09372888	1	1	3	1	1	1	1	0	390	221
1	1	12	2	0	11	1	1	0,01339338	0,01338297	0,09371801	0,0937164	1	2	3	1	2	2	1	0	436	222
1	1	12	3	0	11	1	1	0,01338711	0,01339581	0,09371265	0,09371588	1	2	3	0	2	2	1	0	425	223
1	1	12	4	0	11	1	1	0,01338103	0,01339601	0,09371309	0,09371748	1	2	2	0	2	2	1	0	406	224
1	1	12	5	0	11	1	1	0,01338798	0,01339107	0,09371489	0,09370876	1	1	0	1	1	1	1	0	381	225
1	1	12	6	0	11	1	1	0,01338555	0,01339039	0,09371758	0,09372153	1	2	0	1	2	2	1	0	356	226
1	1	12	7	0	11	1	1	0,01338348	0,01339271	0,09372216	0,09372222	1	1	2	2	1	1	1	0	389	227
1	1	12	8	0	11	1	1	0,013397	0,01338186	0,09372228	0,09371329	1	1	3	0	1	1	1	0	395	228
1	1	12	9	0	11	1	1	0,01337829	0,01338683	0,09372136	0,09371466	1	1	3	2	1	1	1	0	408	229
1	1	12	10	0	11	1	1	0,01339561	0,01337831	0,09371704	0,09372041	1	1	1	1	1	1	1	0	350	230
1	1	12	11	0	11	1	1	0,01338431	0,0133875	0,09372497	0,09371523	1	1	2	1	1	1	1	0	395	231
1	1	12	12	0	11	1	1	0,01338159	0,01339523	0,09371053	0,09372109	1	2	0	2	2	2	1	0	488	232
1	1	12	13	0	11	1	1	0,01339019	0,01339085	0,09371484	0,09371565	1	2	1	2	2	1	0	1	509	233
1	1	12	14	0	11	1	1	0,01339448	0,01338353	0,09371559	0,09372549	1	2	2	1	2	2	1	0	529	234
1	1	12	15	0	11	1	1	0,01338761	0,01338771	0,09371834	0,09371192	1	2	1	1	2	2	1	0	470	235
1	1	12	16	0	11	1	1	0,01338552	0,01338611	0,09371451	0,09372005	1	1	0	2	1	1	1	0	411	236
1	1	12	17	0	11	1	1	0,01339167	0,01338992	0,09372298	0,0937211	1	1	1	0	1	1	1	0	424	237
1	1	12	18	0	11	1	1	0,01338336	0,01338926	0,09371192	0,09372236	1	2	1	0	2	2	1	0	406	238
1	1	12	19	0	11	1	1	0,01338585	0,01338287	0,09371501	0,09371051	1	1	1	2	1	1	1	0	371	239
1	1	12	20	0	11	1	1	0,01339406	0,01339184	0,09371094	0,09371346	1	1	2	0	1	1	1	0	465	240
1	1	12	21	0	11	1	1	0,01338481	0,01338515	0,09371509	0,0937147	1	2	2	2	2	2	1	0	357	241
1	1	12	22	0	11	1	1	0,01339094	0,01339104	0,09371118	0,09370913	1	2	3	2	2	2	1	0	443	242
1	1	13	1	0	11	1	1	0,01339585	0,01338147	0,09372063	0,09370921	1	1	0	2	1	1	1	0	496	243
1	1	13	2	0	11	1	1	0,01338659	0,01338315	0,09371386	0,09372294	1	1	2	2	1	1	1	0	381	244
1	1	13	3	0	11	1	1	0,0133937	0,01338861	0,09370699	0,09372054	1	2	2	0	2	2	1	0	402	245
1	1	13	4	0	11	1	1	0,01339355	0,01338052	0,09372251	0,0937159	1	1	0	1	1	1	1	0	391	246
1	1	13	5	0	11	1	1	0,01339126	0,01338534	0,09371747	0,09372116	1	1	2	1	1	1	1	0	413	247
1	1	13	6	0	11	1	1	0,01338901	0,01338481	0,09371719	0,09371498	1	1	1	0	1	1	1	0	386	248
1	1	13	7	0	11	1	1	0,01337953	0,01339633	0,09371071	0,09371584	1	1	3	0	1	1	1	0	447	249
1	1	13	8	0	11	1	1	0,01339016	0,01338987	0,09372123	0,09371422	1	2	1	1	2	2	1	0	509	250
1	1	13	9	0	11	1	1	0,01339479	0,01338419	0,09371825	0,09371429	1	1	3	1	1	1	1	0	379	251
1	1	13	10	0	11	1	1	0,0133916	0,01338144	0,09372365	0,09372263	1	2	1	0	2	2	1	0	472	252
1	1	13	11	0	11	1	1	0,01339569	0,01338535	0,09371924	0,09371608	1	1	1	1	1	1	1	0	317	253
1	1	13	12	0	11	1	1	0,01339018	0,01338643	0,09372126	0,09371928	1	2	3	1	2	2	1	0	442	254
1	1	13	13	0	11	1	1	0,01339528	0,01339281	0,09370608	0,09371776	1	1	1	2	1	1	1	0	343	255
1	1	13	14	0	11	1	1	0,01338395	0,01338769	0,09371481	0,0937169	1	1	2	0	1	1	1	0	452	256
1	1	13	15	0	11	1	1	0,01338319	0,01338824	0,09371908	0,09372316	1	2	0	2	2	2	1	0	418	257
1	1	13	16	0	11	1	1	0,01339477	0,01339157	0,09370714	0,09371575	1	2	3	0	2	2	1	0	479	258
1	1	13	17	0	11	1	1	0,01338143	0,01338912	0,09371698	0,0937199	1	2	2	1	2	2	1	0	412	259
1	1	13	18	0	11	1	1	0,01339946	0,01338148	0,093722	0,09371519	1	2	3	2	2	2	1	0	417	260
1	1	13	19	0	11	1	1	0,01338136	0,01339201	0,09372414	0,09370943	1	2	2	2	2	2	1	0	407	261
1	1	13	20	0	11	1	1	0,0133897	0,01338462	0,09372453	0,09372344	1	1	3	2	1	1	1	0	501	262
1	1	13	21	0	11	1	1	0,01338334	0,01338518	0,09371974	0,0937182	1	2	0	1	2	2	1	0	305	263
1	1	13	22	0	11	1	1	0,01338789	0,01338813	0,09371749	0,09371679	1	2	1	2	2	2	1	0	423	264
1	1	14	1	0	11	1	1	0,01338645	0,01338077	0,09372906	0,09371725	1	1	1	2	1	1	1	0	351	265
1	1	14	2	0	11	1	1	0,01339786	0,01338003	0,09372174	0,09372391	1	1	3	2	1	1	1	0	433	266
1	1	14	3	0	11	1	1	0,01338127	0,01339404	0,09371089	0,09372192	1	1	3	1	1	1	1	0	334	267
1	1	14	4	0	11	1	1	0,01339127	0,01338039	0,09372637	0,0937158	1	2	3	1	2	1	0	1	315	268
1	1	14	5	0	11	1	1	0,01338544	0,01338899	0,09372411	0,09371202	1	1	1	0	1	1	1	0	358	269
1	1	14	6	0	11	1	1	0,01339402	0,01338975	0,09370446	0,09371277	1	1	3	0	1	1	1	0	388	270
1	1	14	7	0	11	1	1	0,01338807	0,01339097	0,09370915	0,09370858	1	1	2	1	1	1	1	0	409	271
1	1	14	8	0	11	1	1	0,01339812	0,01338122	0,09371991	0,09372257	1	2	1	0	2	2	1	0	406	272
1	1	14	9	0	11	1	1	0,01338093	0,01339178	0,09372484	0,09371392	1	1	2	0	1	1	1	0	364	273
1	1	14	10	0	11	1	1	0,01339098	0,01338935	0,09371765	0,09371701	1	2	2	2	2	2	1	0	385	274
1	1	14	11	0	11	1	1	0,01337812	0,01339933	0,09370744	0,09371687	1	1	0	2	1	1	1	0	350	275
1	1	14	12	0	11	1	1	0,01338783	0,01339899	0,09370617	0,09371315	1	2	0	1	2	2	1	0	299	276
1	1	14	13	0	11	1	1	0,01339021	0,01339368	0,09371626	0,09371679	1	2	3	0	2	2	1	0	457	277
1	1	14	14	0	11	1	1	0,01338258	0,013387	0,09371668	0,09371784	1	2	1	2	2	2	1	0	422	278
1	1	14	15	0	11	1	1	0,01339084	0,01337779	0,09372247	0,09372354	1	1	1	1	1	1	1	0	299	279
1	1	14	16	0	11	1	1	0,01339124	0,01339024	0,09371487	0,09371436	1	1	0	1	1	1	1	0	280	280
1	1	14	17	0	11	1	1	0,01338923	0,01338414	0,09371605	0,09371095	1	2	2	1	2	2	1	0	494	281
1	1	14	18	0	11	1	1	0,01338173	0,01339479	0,09370988	0,09371123	1	2	3	2	2	2	1	0	411	282
1	1	14	19	0	11	1	1	0,01338926	0,01338088	0,09372494	0,09371633	1	2	1	1	2	2	1	0	440	283
1	1	14	20	0	11	1	1	0,01338678	0,01338242	0,09371926	0,09371717	1	1	2	2	1	1	1	0	390	284
1	1	14	21	0	11	1	1	0,01337745	0,0133909	0,09372143	0,09371061	1	2	2	0	2	2	1	0	395	285
1	1	14	22	0	11	1	1	0,01339591	0,01338125	0,09372415	0,09371531	1	2	0	2	2	1	0	1	224	286
1	1	15	1	0	11	1	1	0,01339199	0,01338636	0,09371786	0,09371103	1	2	0	0	2	2	1	0	268	287
1	1	15	2	0	11	1	1	0,01339105	0,01338473	0,09372611	0,09371526	1	1	0	0	1	1	1	0	386	288
1	1	15	3	0	11	1	1	0,01338224	0,01338219	0,09371636	0,09371119	1	2	0	0	2	1	0	1	359	289
1	1	15	4	0	11	1	1	0,01337961	0,01339049	0,09371468	0,09371862	1	2	0	0	2	2	1	0	306	290
1	1	15	5	0	11	1	1	0,01338767	0,01339429	0,09371868	0,09371668	1	2	0	0	2	2	1	0	352	291
1	1	15	6	0	11	1	1	0,01339446	0,0133921	0,09371646	0,09372044	1	1	0	0	1	1	1	0	325	292
1	1	15	7	0	11	1	1	0,01339325	0,01338628	0,09371643	0,09371766	1	2	0	0	2	2	1	0	266	293
1	1	15	8	0	11	1	1	0,01339083	0,01338152	0,0937268	0,09371858	1	2	0	0	2	2	1	0	295	294
1	1	15	9	0	11	1	1	0,01339676	0,01339097	0,09371643	0,0937113	1	2	0	0	2	2	1	0	332	295
1	1	15	10	0	11	1	1	0,01338804	0,0133912	0,09371367	0,09371596	1	2	0	0	2	2	1	0	290	296
1	1	15	11	0	11	1	1	0,01338608	0,0133996	0,09370616	0,09371306	1	1	0	0	1	1	1	0	328	297
1	1	15	12	0	11	1	1	0,01339061	0,01339055	0,09371903	0,0937219	1	1	0	0	1	2	0	1	261	298
1	1	15	13	0	11	1	1	0,01339161	0,01338518	0,09371959	0,09372301	1	1	0	0	1	1	1	0	432	299
1	1	15	14	0	11	1	1	0,01339304	0,01339521	0,09371606	0,0937145	1	2	0	0	2	2	1	0	477	300
1	1	15	15	0	11	1	1	0,01338182	0,01338795	0,09372131	0,09371947	1	1	0	0	1	1	1	0	410	301
1	1	15	16	0	11	1	1	0,01338862	0,01339308	0,09371591	0,09371615	1	2	0	0	2	2	1	0	351	302
1	1	15	17	0	11	1	1	0,01337764	0,01338774	0,09372875	0,09372094	1	1	0	0	1	1	1	0	373	303
1	1	15	18	0	11	1	1	0,01338	0,01339591	0,09371808	0,09372076	1	1	0	0	1	1	1	0	387	304
1	1	15	19	0	11	1	1	0,01337896	0,01338617	0,09371727	0,09370773	1	1	0	0	1	1	1	0	376	305
1	1	15	20	0	11	1	1	0,01339002	0,01338502	0,09372277	0,09372464	1	1	0	0	1	1	1	0	332	306
1	1	15	21	0	11	1	1	0,01338951	0,01338585	0,09372002	0,093722	1	2	0	0	2	2	1	0	314	307
1	1	15	22	0	11	1	1	0,01338287	0,01339586	0,09370631	0,09371771	1	1	0	0	1	1	1	0	336	308
1	1	16	1	0	11	1	1	0,01338095	0,01339828	0,09370763	0,09372472	1	1	3	2	1	1	1	0	412	309
1	1	16	2	0	11	1	1	0,01338811	0,0133913	0,09371277	0,09371547	1	2	3	1	2	2	1	0	354	310
1	1	16	3	0	11	1	1	0,0133932	0,01338126	0,09372498	0,09371422	1	2	1	2	2	2	1	0	399	311
1	1	16	4	0	11	1	1	0,01339077	0,01338527	0,0937168	0,09372467	1	1	1	2	1	1	1	0	332	312
1	1	16	5	0	11	1	1	0,01339114	0,01338884	0,09371916	0,09371573	1	1	1	1	1	1	1	0	433	313
1	1	16	6	0	11	1	1	0,01338716	0,01338199	0,09372563	0,09371197	1	2	1	1	2	2	1	0	438	314
1	1	16	7	0	11	1	1	0,01338211	0,01339823	0,09370598	0,09372781	1	1	1	0	1	1	1	0	356	315
1	1	16	8	0	11	1	1	0,01338131	0,01338913	0,09372244	0,09370808	1	1	3	0	1	1	1	0	393	316
1	1	16	9	0	11	1	1	0,01338346	0,0133871	0,09371634	0,09372092	1	2	0	2	2	2	1	0	430	317
1	1	16	10	0	11	1	1	0,01338818	0,01338787	0,09371174	0,09371309	1	1	3	1	1	1	1	0	356	318
1	1	16	11	0	11	1	1	0,01339394	0,01338412	0,09372392	0,09371977	1	1	0	1	1	1	1	0	393	319
1	1	16	12	0	11	1	1	0,01339104	0,01338583	0,09371713	0,09370973	1	2	2	2	2	2	1	0	350	320
1	1	16	13	0	11	1	1	0,01339837	0,01338334	0,09372085	0,09371674	1	2	3	0	2	2	1	0	428	321
1	1	16	14	0	11	1	1	0,01338334	0,01339328	0,09370885	0,09372065	1	1	2	2	1	1	1	0	356	322
1	1	16	15	0	11	1	1	0,01338709	0,0133905	0,09371533	0,09371212	1	2	0	1	2	2	1	0	286	323
1	1	16	16	0	11	1	1	0,01338549	0,01338965	0,09371085	0,09372422	1	2	3	2	2	2	1	0	395	324
1	1	16	17	0	11	1	1	0,0133888	0,01338044	0,09372396	0,09371503	1	2	2	1	2	2	1	0	480	325
1	1	16	18	0	11	1	1	0,01338204	0,0133947	0,09370861	0,09371653	1	1	0	2	1	1	1	0	310	326
1	1	16	19	0	11	1	1	0,01338343	0,01338779	0,09371907	0,09370523	1	1	2	1	1	1	1	0	363	327
1	1	16	20	0	11	1	1	0,01339241	0,01338535	0,09371873	0,0937163	1	1	2	0	1	1	1	0	401	328
1	1	16	21	0	11	1	1	0,01339206	0,01338068	0,0937205	0,09371382	1	2	2	0	2	2	1	0	333	329
1	1	16	22	0	11	1	1	0,01339134	0,01338956	0,09371405	0,09371272	1	2	1	0	2	2	1	0	403	330
1	1	17	1	0	11	1	1	0,01338802	0,01338708	0,09371647	0,09371668	1	2	3	0	2	2	1	0	416	331
1	1	17	2	0	11	1	1	0,01339014	0,01339632	0,09370606	0,09371999	1	2	1	0	2	2	1	0	405	332
1	1	17	3	0	11	1	1	0,0133937	0,01339095	0,09370969	0,09371198	1	2	3	2	2	2	1	0	403	333
1	1	17	4	0	11	1	1	0,0133889	0,01338253	0,09371043	0,09371513	1	1	0	2	1	1	1	0	336	334
1	1	17	5	0	11	1	1	0,01339649	0,01338665	0,0937109	0,09371454	1	1	2	1	1	1	1	0	390	335
1	1	17	6	0	11	1	1	0,01338571	0,01339519	0,09370959	0,09371747	1	2	1	2	2	2	1	0	370	336
1	1	17	7	0	11	1	1	0,013398	0,01338015	0,09372016	0,09371534	1	2	3	1	2	2	1	0	416	337
1	1	17	8	0	11	1	1	0,01338719	0,01338861	0,09370973	0,09371828	1	1	1	2	1	1	1	0	349	338
1	1	17	9	0	11	1	1	0,01339165	0,01339253	0,09370876	0,09372343	1	1	0	1	1	1	1	0	402	339
1	1	17	10	0	11	1	1	0,01338734	0,01338763	0,09372061	0,09371281	1	1	3	0	1	1	1	0	384	340
1	1	17	11	0	11	1	1	0,01338906	0,01338534	0,09372328	0,09372311	1	1	2	0	1	1	1	0	373	341
1	1	17	12	0	11	1	1	0,01338832	0,01339476	0,09371186	0,09371965	1	1	2	2	1	1	1	0	348	342
1	1	17	13	0	11	1	1	0,0133785	0,01339103	0,09371452	0,09372111	1	2	1	1	2	2	1	0	512	343
1	1	17	14	0	11	1	1	0,0133885	0,01339394	0,09370878	0,09370859	1	2	2	2	2	2	1	0	373	344
1	1	17	15	0	11	1	1	0,0133781	0,01339973	0,09371579	0,09370967	1	1	3	1	1	1	1	0	354	345
1	1	17	16	0	11	1	1	0,01339721	0,01337902	0,0937163	0,09372673	1	1	1	0	1	1	1	0	535	346
1	1	17	17	0	11	1	1	0,01338166	0,01338769	0,09371927	0,09371298	1	2	0	2	2	2	1	0	389	347
1	1	17	18	0	11	1	1	0,01338048	0,01338801	0,09371756	0,09371373	1	2	0	1	2	2	1	0	322	348
1	1	17	19	0	11	1	1	0,01338464	0,01338899	0,09372076	0,0937096	1	1	3	2	1	0	0	1	802	349
1	1	17	20	0	11	1	1	0,01338449	0,01339381	0,09371304	0,09370655	1	2	2	1	2	2	1	0	405	350
1	1	17	21	0	11	1	1	0,01339326	0,01338678	0,09371173	0,09372029	1	2	2	0	2	1	0	1	298	351
1	1	17	22	0	11	1	1	0,01338105	0,01339862	0,09370804	0,0937257	1	1	1	1	1	1	1	0	357	352
1	1	18	1	0	11	1	1	0,01338636	0,01339756	0,0937076	0,09370957	1	2	3	2	2	2	1	0	369	353
1	1	18	2	0	11	1	1	0,01338558	0,01339269	0,09371506	0,09372085	1	2	2	0	2	1	0	1	294	354
1	1	18	3	0	11	1	1	0,01338153	0,01338928	0,09371789	0,09371393	1	1	1	2	1	1	1	0	321	355
1	1	18	4	0	11	1	1	0,01339582	0,01338534	0,09371839	0,09371473	1	1	1	1	1	1	1	0	390	356
1	1	18	5	0	11	1	1	0,01339689	0,01338057	0,09372115	0,09371062	1	1	3	1	1	1	1	0	339	357
1	1	18	6	0	11	1	1	0,01338201	0,01339521	0,09371046	0,09372144	1	1	0	2	1	2	0	1	249	358
1	1	18	7	0	11	1	1	0,01338659	0,01339462	0,09371301	0,0937132	1	2	2	2	2	2	1	0	468	359
1	1	18	8	0	11	1	1	0,01338087	0,01339099	0,09371815	0,09372678	1	1	3	2	1	1	1	0	314	360
1	1	18	9	0	11	1	1	0,01339073	0,01338314	0,0937245	0,09372042	1	2	1	2	2	2	1	0	318	361
1	1	18	10	0	11	1	1	0,01338494	0,01339526	0,0937125	0,09372052	1	1	2	2	1	1	1	0	268	362
1	1	18	11	0	11	1	1	0,01338962	0,01338734	0,09371526	0,09370657	1	1	3	0	1	1	1	0	354	363
1	1	18	12	0	11	1	1	0,01339192	0,01338984	0,09371503	0,09371113	1	1	0	1	1	1	1	0	311	364
1	1	18	13	0	11	1	1	0,01338524	0,01339214	0,09371361	0,09372093	1	2	0	1	2	2	1	0	300	365
1	1	18	14	0	11	1	1	0,01339385	0,01338525	0,09371041	0,09371844	1	2	2	1	2	2	1	0	401	366
1	1	18	15	0	11	1	1	0,01338098	0,01339712	0,09371583	0,09372363	1	1	1	0	1	1	1	0	318	367
1	1	18	16	0	11	1	1	0,01339182	0,01338069	0,09371717	0,0937164	1	2	1	1	2	2	1	0	460	368
1	1	18	17	0	11	1	1	0,01339304	0,01337791	0,09371706	0,09372122	1	1	2	0	1	1	1	0	297	369
1	1	18	18	0	11	1	1	0,01338804	0,01338955	0,0937242	0,09371525	1	2	3	0	2	1	0	1	310	370
1	1	18	19	0	11	1	1	0,01338569	0,01339307	0,09371335	0,09370948	1	1	2	1	1	1	1	0	386	371
1	1	18	20	0	11	1	1	0,01338346	0,01339493	0,09371072	0,0937147	1	2	3	1	2	2	1	0	368	372
1	1	18	21	0	11	1	1	0,01338222	0,01338995	0,09372275	0,09372525	1	2	0	2	2	1	0	1	236	373
1	1	18	22	0	11	1	1	0,01338155	0,01338693	0,09372077	0,09371502	1	2	1	0	2	2	1	0	377	374
1	1	19	1	0	11	1	1	0,01339529	0,01339007	0,09370596	0,09371746	1	1	2	2	1	1	1	0	301	375
1	1	19	2	0	11	1	1	0,01339355	0,01337868	0,09371806	0,09371622	1	1	3	2	1	1	1	0	305	376
1	1	19	3	0	11	1	1	0,01338809	0,01338561	0,093715	0,09371456	1	2	2	1	2	1	0	1	287	377
1	1	19	4	0	11	1	1	0,01339547	0,0133801	0,09371528	0,09372892	1	2	2	2	2	2	1	0	306	378
1	1	19	5	0	11	1	1	0,01338408	0,01338906	0,0937133	0,09371782	1	2	3	0	2	2	1	0	391	379
1	1	19	6	0	11	1	1	0,01338896	0,01337823	0,09371657	0,09371781	1	1	0	2	1	1	1	0	349	380
1	1	19	7	0	11	1	1	0,01339023	0,0133836	0,09372345	0,09371595	1	1	1	1	1	1	1	0	418	381
1	1	19	8	0	11	1	1	0,01339002	0,01339194	0,09370828	0,09371751	1	1	3	1	1	1	1	0	392	382
1	1	19	9	0	11	1	1	0,01338868	0,0133881	0,09371747	0,09371136	1	2	1	2	2	2	1	0	332	383
1	1	19	10	0	11	1	1	0,01339186	0,01338446	0,09371921	0,09371622	1	1	1	0	1	1	1	0	321	384
1	1	19	11	0	11	1	1	0,01338512	0,01338499	0,09372096	0,09371641	1	1	0	1	1	1	1	0	407	385
1	1	19	12	0	11	1	1	0,0133812	0,01338668	0,0937184	0,09371711	1	2	0	2	2	2	1	0	412	386
1	1	19	13	0	11	1	1	0,01339968	0,01338454	0,0937091	0,09372309	1	1	2	0	1	1	1	0	281	387
1	1	19	14	0	11	1	1	0,0133874	0,01339143	0,09371914	0,09370753	1	2	2	0	2	2	1	0	335	388
1	1	19	15	0	11	1	1	0,01337849	0,01339811	0,09371063	0,09372194	1	1	1	2	1	1	1	0	292	389
1	1	19	16	0	11	1	1	0,01338492	0,01339521	0,09371105	0,09371699	1	1	2	1	1	1	1	0	409	390
1	1	19	17	0	11	1	1	0,0133764	0,01339474	0,0937166	0,09371707	1	2	3	2	2	2	1	0	326	391
1	1	19	18	0	11	1	1	0,01338304	0,01339448	0,09371167	0,09371255	1	2	3	1	2	1	0	1	276	392
1	1	19	19	0	11	1	1	0,01338153	0,0133869	0,09372576	0,09371007	1	2	1	0	2	2	1	0	431	393
1	1	19	20	0	11	1	1	0,01338365	0,01339284	0,0937127	0,09370878	1	1	3	0	1	1	1	0	357	394
1	1	19	21	0	11	1	1	0,01339403	0,01338915	0,09370891	0,09372307	1	2	1	1	2	2	1	0	450	395
1	1	19	22	0	11	1	1	0,01338446	0,01338928	0,09371615	0,09371857	1	2	0	1	2	2	1	0	295	396
1	1	20	1	0	11	1	1	0,01339335	0,01338695	0,09371736	0,09371922	1	1	3	1	1	1	1	0	371	397
1	1	20	2	0	11	1	1	0,01339587	0,01339045	0,09371222	0,09371326	1	2	1	2	2	2	1	0	312	398
1	1	20	3	0	11	1	1	0,01338864	0,01338945	0,09372365	0,09372225	1	2	0	1	2	2	1	0	246	399
1	1	20	4	0	11	1	1	0,01339484	0,01338298	0,09371501	0,09371035	1	2	2	1	2	1	0	1	211	400
1	1	20	5	0	11	1	1	0,01339327	0,01338696	0,09371102	0,09371008	1	1	3	0	1	1	1	0	390	401
1	1	20	6	0	11	1	1	0,0133923	0,01338584	0,0937103	0,09370904	1	2	3	2	2	2	1	0	315	402
1	1	20	7	0	11	1	1	0,01338558	0,01338092	0,09372473	0,09371836	1	2	3	1	2	1	0	1	288	403
1	1	20	8	0	11	1	1	0,01339119	0,01338641	0,09371442	0,09371734	1	1	1	2	1	1	1	0	300	404
1	1	20	9	0	11	1	1	0,01339815	0,01338741	0,09370683	0,09372608	1	2	0	2	2	1	0	1	281	405
1	1	20	10	0	11	1	1	0,01338989	0,01339183	0,09372196	0,0937165	1	1	3	2	1	1	1	0	346	406
1	1	20	11	0	11	1	1	0,01338768	0,01338933	0,09371597	0,0937173	1	2	3	0	2	2	1	0	351	407
1	1	20	12	0	11	1	1	0,01338861	0,01338819	0,09371622	0,09371614	1	2	2	0	2	2	1	0	436	408
1	1	20	13	0	11	1	1	0,01338829	0,01338752	0,093717	0,09371755	1	2	1	0	2	2	1	0	585	409
1	1	20	14	0	11	1	1	0,01338828	0,01338844	0,09371619	0,0937158	1	2	2	2	2	2	1	0	414	410
1	1	20	15	0	11	1	1	0,01338814	0,01338748	0,0937171	0,09371894	1	1	1	1	1	1	1	0	372	411
1	1	20	16	0	11	1	1	0,01338834	0,0133887	0,09371641	0,09371588	1	1	2	1	1	1	1	0	777	412
1	1	20	17	0	11	1	1	0,01338348	0,01338872	0,09370409	0,09386554	1	1	2	2	1	1	1	0	358	413
1	1	20	18	0	11	1	1	0,01338366	0,01339038	0,09370634	0,09370847	1	2	1	1	2	2	1	0	375	414
1	1	20	19	0	11	1	1	0,01338094	0,01337605	0,09373409	0,093661	1	1	0	2	1	2	0	1	269	415
1	1	20	20	0	11	1	1	0,01336086	0,01337872	0,09374705	0,09369601	1	1	1	0	1	1	1	0	417	416
1	1	20	21	0	11	1	1	0,01338607	0,01339636	0,09371354	0,09371705	1	1	0	1	1	1	1	0	359	417
1	1	20	22	0	11	1	1	0,01339058	0,0133805	0,09372008	0,09373169	1	1	2	0	1	1	1	0	411	418
1	1	21	1	0	11	1	1	0,01338616	0,0133915	0,09372834	0,09372936	1	2	1	1	2	2	1	0	370	419
1	1	21	2	0	11	1	1	0,01338305	0,01344502	0,09366727	0,09370648	1	2	1	0	2	1	0	1	346	420
1	1	21	3	0	11	1	1	0,01339269	0,01339649	0,09371594	0,09373651	1	1	0	2	1	1	1	0	426	421
1	1	21	4	0	11	1	1	0,01339225	0,01339605	0,09369524	0,09370079	1	1	3	1	1	1	1	0	407	422
1	1	21	5	0	11	1	1	0,01339299	0,01339197	0,09371984	0,09371625	1	2	1	2	2	2	1	0	316	423
1	1	21	6	0	11	1	1	0,01339589	0,01338494	0,0937228	0,09371109	1	2	0	2	2	1	0	1	297	424
1	1	21	7	0	11	1	1	0,01339683	0,01337305	0,09372499	0,09372785	1	1	1	1	1	1	1	0	413	425
1	1	21	8	0	11	1	1	0,01335449	0,01337921	0,09371151	0,09373192	1	2	2	0	2	2	1	0	339	426
1	1	21	9	0	11	1	1	0,01339474	0,01346642	0,09364356	0,0937205	1	2	3	0	2	2	1	0	343	427
1	1	21	10	0	11	1	1	0,01340138	0,01338753	0,09369652	0,09375712	1	2	3	2	2	2	1	0	391	428
1	1	21	11	0	11	1	1	0,01340018	0,01339082	0,09371127	0,09371871	1	1	1	2	1	1	1	0	322	429
1	1	21	12	0	11	1	1	0,01336404	0,01344523	0,09369374	0,09371176	1	2	3	1	2	2	1	0	311	430
1	1	21	13	0	11	1	1	0,01338516	0,01339832	0,09372592	0,09372856	1	1	2	0	1	1	1	0	316	431
1	1	21	14	0	11	1	1	0,01337958	0,01340399	0,09371019	0,09370608	1	1	0	1	1	1	1	0	306	432
1	1	21	15	0	11	1	1	0,01338398	0,0134502	0,09366568	0,0937115	1	2	2	2	2	2	1	0	239	433
1	1	21	16	0	11	1	1	0,01337427	0,01338941	0,09371188	0,093696	1	2	2	1	2	1	0	1	260	434
1	1	21	17	0	11	1	1	0,01338993	0,01340935	0,09369578	0,09372078	1	1	2	1	1	1	1	0	415	435
1	1	21	18	0	11	1	1	0,01338903	0,01342371	0,09369404	0,09371032	1	1	1	0	1	1	1	0	549	436
1	1	21	19	0	11	1	1	0,01335797	0,01339263	0,09373216	0,09373835	1	1	3	0	1	1	1	0	419	437
1	1	21	20	0	11	1	1	0,01337875	0,01339991	0,09371634	0,09371063	1	2	0	1	2	2	1	0	256	438
1	1	21	21	0	11	1	1	0,01338537	0,013449	0,09366988	0,09371336	1	1	2	2	1	1	1	0	284	439
1	1	21	22	0	11	1	1	0,01337716	0,01340297	0,0936978	0,09370613	1	1	3	2	1	1	1	0	357	440
1	1	22	1	0	11	1	1	0,01338133	0,01341054	0,09368947	0,09371889	1	1	0	0	1	1	1	0	293	441
1	1	22	2	0	11	1	1	0,01338714	0,01339083	0,09372561	0,09373544	1	2	0	0	2	2	1	0	366	442
1	1	22	3	0	11	1	1	0,01339166	0,01346385	0,09365067	0,09371643	1	2	0	0	2	2	1	0	434	443
1	1	22	4	0	11	1	1	0,01340965	0,01338649	0,09370809	0,09371361	1	1	0	0	1	1	1	0	320	444
1	1	22	5	0	11	1	1	0,01338284	0,01339549	0,09372576	0,09371111	1	1	0	0	1	1	1	0	342	445
1	1	22	6	0	11	1	1	0,01338673	0,01339039	0,09372713	0,09372711	1	2	0	0	2	1	0	1	323	446
1	1	22	7	0	11	1	1	0,01338081	0,01340964	0,09369212	0,09371689	1	1	0	0	1	1	1	0	285	447
1	1	22	8	0	11	1	1	0,01343423	0,01335655	0,09372404	0,09373751	1	1	0	0	1	1	1	0	383	448
1	1	22	9	0	11	1	1	0,01339088	0,01346625	0,09365387	0,09372868	1	2	0	0	2	2	1	0	361	449
1	1	22	10	0	11	1	1	0,01340359	0,01340074	0,09369864	0,0937186	1	1	0	0	1	1	1	0	350	450
1	1	22	11	0	11	1	1	0,01338565	0,01339467	0,09373001	0,09371388	1	2	0	0	2	2	1	0	348	451
1	1	22	12	0	11	1	1	0,01338743	0,01338898	0,09372816	0,09372261	1	1	0	0	1	1	1	0	280	452
1	1	22	13	0	11	1	1	0,0133856	0,0133905	0,09372497	0,09370717	1	2	0	0	2	2	1	0	341	453
1	1	22	14	0	11	1	1	0,01339336	0,01340299	0,09370535	0,09370047	1	1	0	0	1	1	1	0	267	454
1	1	22	15	0	11	1	1	0,01336424	0,01337946	0,09372741	0,09369873	1	2	0	0	2	2	1	0	296	455
1	1	22	16	0	11	1	1	0,01337077	0,01338543	0,09373085	0,09371563	1	1	0	0	1	1	1	0	301	456
1	1	22	17	0	11	1	1	0,01339308	0,01337748	0,09371229	0,09373071	1	2	0	0	2	2	1	0	315	457
1	1	22	18	0	11	1	1	0,01338794	0,01343064	0,09369639	0,09372781	1	1	0	0	1	1	1	0	272	458
1	1	22	19	0	11	1	1	0,01339591	0,01337934	0,09370692	0,09371421	1	2	0	0	2	2	1	0	229	459
1	1	22	20	0	11	1	1	0,01338559	0,01338122	0,09372842	0,09371699	1	2	0	0	2	2	1	0	370	460
1	1	22	21	0	11	1	1	0,01338538	0,01338932	0,09370402	0,0937191	1	2	0	0	2	2	1	0	356	461
1	1	22	22	0	11	1	1	0,01338159	0,01339026	0,09372259	0,09372878	1	1	0	0	1	1	1	0	325	462
1	1	23	1	0	11	1	1	0,01337679	0,01339649	0,09372851	0,09371482	1	2	3	1	2	2	1	0	381	463
1	1	23	2	0	11	1	1	0,0133902	0,0133623	0,09372125	0,09373146	1	1	2	0	1	1	1	0	331	464
1	1	23	3	0	11	1	1	0,01338772	0,01343729	0,09367313	0,09371388	1	1	1	0	1	1	1	0	408	465
1	1	23	4	0	11	1	1	0,01338988	0,01337711	0,09372507	0,0937262	1	2	1	2	2	2	1	0	294	466
1	1	23	5	0	11	1	1	0,013385	0,01339577	0,09369784	0,09371855	1	1	3	0	1	1	1	0	339	467
1	1	23	6	0	11	1	1	0,01339627	0,01338499	0,09371731	0,0936884	1	1	3	1	1	1	1	0	384	468
1	1	23	7	0	11	1	1	0,01338137	0,01339467	0,09370983	0,09370902	1	2	1	0	2	2	1	0	333	469
1	1	23	8	0	11	1	1	0,01341672	0,01335896	0,09372236	0,0937495	1	2	3	0	2	2	1	0	385	470
1	1	23	9	0	11	1	1	0,01338377	0,01340066	0,0937278	0,093702	1	2	2	0	2	2	1	0	392	471
1	1	23	10	0	11	1	1	0,01339078	0,01338497	0,09371684	0,09372278	1	2	1	1	2	2	1	0	557	472
1	1	23	11	0	11	1	1	0,0133924	0,01340127	0,09371793	0,09372194	1	1	1	1	1	1	1	0	306	473
1	1	23	12	0	11	1	1	0,01340685	0,01338532	0,09371993	0,09370021	1	2	0	2	2	2	1	0	357	474
1	1	23	13	0	11	1	1	0,01336234	0,01339056	0,09372143	0,09371238	1	1	0	2	1	1	1	0	368	475
1	1	23	14	0	11	1	1	0,01337852	0,0133932	0,09372695	0,09370895	1	1	2	2	1	1	1	0	379	476
1	1	23	15	0	11	1	1	0,01336522	0,01339033	0,09371776	0,09371777	1	1	3	2	1	1	1	0	384	477
1	1	23	16	0	11	1	1	0,01338697	0,01337796	0,09372113	0,09371668	1	1	1	2	1	1	1	0	429	478
1	1	23	17	0	11	1	1	0,01340135	0,013374	0,09371844	0,09377249	1	1	2	1	1	1	1	0	410	479
1	1	23	18	0	11	1	1	0,01339639	0,01340896	0,09368675	0,09372937	1	2	0	1	2	2	1	0	327	480
1	1	23	19	0	11	1	1	0,01339116	0,01338239	0,0937058	0,09372376	1	2	2	2	2	2	1	0	352	481
1	1	23	20	0	11	1	1	0,01338578	0,0133986	0,09371136	0,09371194	1	2	2	1	2	2	1	0	426	482
1	1	23	21	0	11	1	1	0,01340367	0,0133896	0,09370446	0,09371179	1	1	0	1	1	1	1	0	320	483
1	1	23	22	0	11	1	1	0,01339003	0,0133853	0,09372399	0,09371399	1	2	3	2	2	2	1	0	333	484
1	1	24	1	0	11	1	1	0,01339161	0,01338294	0,09371834	0,09372211	1	2	1	1	2	2	1	0	377	485
1	1	24	2	0	11	1	1	0,01341557	0,01341528	0,09368117	0,09372321	1	1	3	0	1	1	1	0	431	486
1	1	24	3	0	11	1	1	0,01336939	0,01338729	0,09370965	0,0937156	1	2	1	2	2	2	1	0	342	487
1	1	24	4	0	11	1	1	0,01339392	0,01340273	0,09370142	0,0937293	1	1	1	0	1	1	1	0	329	488
1	1	24	5	0	11	1	1	0,01338458	0,01339814	0,09369725	0,09370913	1	2	3	0	2	2	1	0	352	489
1	1	24	6	0	11	1	1	0,01339925	0,01339269	0,09371617	0,09371156	1	1	2	2	1	1	1	0	307	490
1	1	24	7	0	11	1	1	0,0133867	0,01338608	0,0937297	0,0937208	1	2	3	1	2	2	1	0	329	491
1	1	24	8	0	11	1	1	0,0133814	0,01339328	0,09374386	0,09372736	1	1	1	2	1	1	1	0	311	492
1	1	24	9	0	11	1	1	0,0133859	0,01339409	0,09371637	0,09373094	1	2	0	2	2	2	1	0	435	493
1	1	24	10	0	11	1	1	0,01339369	0,01344618	0,09366215	0,09371008	1	1	3	1	1	1	1	0	409	494
1	1	24	11	0	11	1	1	0,01337393	0,01338572	0,09373125	0,09369595	1	1	0	2	1	1	1	0	543	495
1	1	24	12	0	11	1	1	0,01337543	0,01338363	0,09372515	0,09374825	1	2	0	1	2	2	1	0	339	496
1	1	24	13	0	11	1	1	0,01337486	0,01339606	0,09371333	0,09372488	1	1	3	2	1	1	1	0	392	497
1	1	24	14	0	11	1	1	0,01337639	0,01336941	0,09372571	0,09372848	1	2	2	1	2	2	1	0	454	498
1	1	24	15	0	11	1	1	0,01339444	0,01338571	0,09370811	0,09372662	1	2	2	2	2	2	1	0	419	499
1	1	24	16	0	11	1	1	0,01339305	0,01337558	0,09372416	0,09373201	1	1	0	1	1	1	1	0	353	500
1	1	24	17	0	11	1	1	0,01337923	0,01339057	0,09369786	0,09375534	1	1	1	1	1	2	0	1	294	501
1	1	24	18	0	11	1	1	0,01337534	0,01338693	0,09372065	0,09374892	1	2	3	2	2	2	1	0	449	502
1	1	24	19	0	11	1	1	0,01337534	0,01348194	0,09362613	0,09368817	1	1	2	0	1	1	1	0	374	503
1	1	24	20	0	11	1	1	0,01337748	0,01337101	0,09372543	0,09372998	1	1	2	1	1	1	1	0	363	504
1	1	24	21	0	11	1	1	0,01339292	0,01338078	0,09371443	0,09371689	1	2	1	0	2	2	1	0	361	505
1	1	24	22	0	11	1	1	0,01339326	0,0133763	0,09372265	0,09373402	1	2	2	0	2	2	1	0	422	506
1	1	25	1	0	11	1	1	0,0133835	0,01337279	0,09374847	0,09370185	1	1	3	2	1	1	1	0	366	507
1	1	25	2	0	11	1	1	0,01340509	0,01336777	0,09372208	0,09371727	1	2	3	1	2	2	1	0	396	508
1	1	25	3	0	11	1	1	0,01337419	0,01339626	0,09371381	0,09372511	1	2	2	1	2	1	0	1	297	509
1	1	25	4	0	11	1	1	0,01338544	0,01339176	0,09372642	0,09371147	1	2	3	2	2	2	1	0	361	510
1	1	25	5	0	11	1	1	0,01337089	0,01340059	0,09372438	0,09370747	1	1	2	2	1	1	1	0	322	511
1	1	25	6	0	11	1	1	0,01339096	0,01338518	0,09373497	0,0937126	1	1	2	0	1	1	1	0	383	512
1	1	25	7	0	11	1	1	0,01337696	0,01337955	0,0937323	0,09370419	1	2	2	2	2	2	1	0	360	513
1	1	25	8	0	11	1	1	0,01338258	0,01338508	0,09372612	0,09371635	1	1	1	0	1	1	1	0	355	514
1	1	25	9	0	11	1	1	0,01337816	0,01339331	0,09371294	0,09372416	1	1	1	1	1	1	1	0	423	515
1	1	25	10	0	11	1	1	0,01338205	0,0133766	0,09372145	0,09371671	1	2	1	2	2	2	1	0	300	516
1	1	25	11	0	11	1	1	0,01338379	0,01338768	0,09370648	0,0937025	1	1	1	2	1	1	1	0	226	517
1	1	25	12	0	11	1	1	0,01339074	0,01344527	0,09366298	0,09372295	1	2	0	2	2	2	1	0	383	518
1	1	25	13	0	11	1	1	0,01339527	0,01338152	0,09369717	0,09371652	1	2	2	0	2	2	1	0	380	519
1	1	25	14	0	11	1	1	0,01340415	0,0133851	0,09374521	0,09373727	1	2	1	0	2	2	1	0	409	520
1	1	25	15	0	11	1	1	0,01339518	0,01339164	0,09369992	0,09371416	1	1	0	1	1	1	1	0	271	521
1	1	25	16	0	11	1	1	0,0134277	0,01335159	0,09375814	0,09371641	1	1	2	1	1	1	1	0	388	522
1	1	25	17	0	11	1	1	0,01338272	0,01341617	0,09370142	0,09370057	1	2	1	1	2	2	1	0	361	523
1	1	25	18	0	11	1	1	0,0133794	0,01339117	0,09372138	0,09370549	1	1	0	2	1	1	1	0	390	524
1	1	25	19	0	11	1	1	0,0134045	0,0134	0,09370824	0,09370186	1	2	0	1	2	2	1	0	275	525
1	1	25	20	0	11	1	1	0,01339629	0,01337981	0,09373253	0,09372071	1	2	3	0	2	2	1	0	385	526
1	1	25	21	0	11	1	1	0,01337839	0,01339241	0,09372614	0,0937041	1	1	3	1	1	1	1	0	422	527
1	1	25	22	0	11	1	1	0,01338542	0,01337772	0,09373505	0,09372245	1	1	3	0	1	1	1	0	380	528
1	1	26	1	0	11	1	1	0,01336541	0,01343061	0,09368916	0,09370562	1	2	2	2	2	2	1	0	354	529
1	1	26	2	0	11	1	1	0,01338917	0,0133917	0,09372303	0,09372505	1	1	2	0	1	1	1	0	320	530
1	1	26	3	0	11	1	1	0,01338235	0,01341183	0,09371294	0,09369709	1	1	3	0	1	1	1	0	405	531
1	1	26	4	0	11	1	1	0,01339896	0,01338296	0,0937273	0,09371348	1	2	3	2	2	2	1	0	410	532
1	1	26	5	0	11	1	1	0,01336968	0,01338922	0,09372987	0,09369877	1	2	1	2	2	2	1	0	354	533
1	1	26	6	0	11	1	1	0,01337975	0,01338061	0,09373715	0,09371753	1	2	2	1	2	2	1	0	437	534
1	1	26	7	0	11	1	1	0,0133679	0,01339793	0,09371259	0,09372707	1	1	1	1	1	1	1	0	395	535
1	1	26	8	0	11	1	1	0,01338603	0,01339111	0,0937053	0,09371446	1	2	3	1	2	2	1	0	351	536
1	1	26	9	0	11	1	1	0,01339566	0,0133797	0,09373533	0,09371456	1	2	0	2	2	2	1	0	509	537
1	1	26	10	0	11	1	1	0,0133978	0,01337033	0,09372673	0,09371659	1	2	0	1	2	2	1	0	290	538
1	1	26	11	0	11	1	1	0,01338342	0,01339289	0,09370552	0,09372069	1	1	0	2	1	1	1	0	439	539
1	1	26	12	0	11	1	1	0,01339225	0,0133976	0,09370892	0,09373599	1	1	1	2	1	1	1	0	373	540
1	1	26	13	0	11	1	1	0,01339566	0,01339094	0,09370377	0,09371073	1	2	1	0	2	2	1	0	338	541
1	1	26	14	0	11	1	1	0,01340606	0,01338512	0,09371275	0,09372158	1	1	2	1	1	1	1	0	375	542
1	1	26	15	0	11	1	1	0,01340319	0,01337715	0,09372303	0,09370125	1	1	2	2	1	1	1	0	356	543
1	1	26	16	0	11	1	1	0,01338668	0,01339147	0,09372624	0,09372636	1	2	1	1	2	2	1	0	474	544
1	1	26	17	0	11	1	1	0,01336306	0,01339927	0,09373055	0,0937707	1	1	3	2	1	1	1	0	415	545
1	1	26	18	0	11	1	1	0,01338393	0,01344512	0,09366968	0,09370227	1	1	0	1	1	1	1	0	357	546
1	1	26	19	0	11	1	1	0,01340358	0,01335697	0,09370903	0,09369568	1	1	3	1	1	1	1	0	394	547
1	1	26	20	0	11	1	1	0,01333728	0,01337845	0,09373819	0,09372727	1	2	2	0	2	2	1	0	447	548
1	1	26	21	0	11	1	1	0,01336978	0,01339798	0,09370547	0,09372359	1	2	3	0	2	2	1	0	364	549
1	1	26	22	0	11	1	1	0,01339721	0,0133658	0,09372534	0,09372497	1	1	1	0	1	1	1	0	289	550
1	1	27	1	0	11	1	1	0,01336626	0,0134209	0,09370403	0,09370935	1	1	2	0	1	1	1	0	340	551
1	1	27	2	0	11	1	1	0,01336497	0,01345631	0,09365098	0,09369891	1	2	0	1	2	2	1	0	265	552
1	1	27	3	0	11	1	1	0,01338186	0,01338407	0,09370982	0,09370059	1	1	3	2	1	1	1	0	295	553
1	1	27	4	0	11	1	1	0,01338519	0,01339332	0,09371551	0,09371538	1	1	2	1	1	2	0	1	268	554
1	1	27	5	0	11	1	1	0,01338456	0,0133935	0,09372448	0,09371897	1	2	2	1	2	2	1	0	384	555
1	1	27	6	0	11	1	1	0,013386	0,01340756	0,09370997	0,09372541	1	1	1	1	1	1	1	0	324	556
1	1	27	7	0	11	1	1	0,01330211	0,01345309	0,09368419	0,09370515	1	1	0	1	1	1	1	0	250	557
1	1	27	8	0	11	1	1	0,01339651	0,01345327	0,09365448	0,09370737	1	2	3	0	2	2	1	0	376	558
1	1	27	9	0	11	1	1	0,01338042	0,01337679	0,09372678	0,09370271	1	2	1	2	2	2	1	0	293	559
1	1	27	10	0	11	1	1	0,01338604	0,01344427	0,09366252	0,09371754	1	2	1	0	2	2	1	0	417	560
1	1	27	11	0	11	1	1	0,01336109	0,01338894	0,09371427	0,09372008	1	2	3	1	2	2	1	0	351	561
1	1	27	12	0	11	1	1	0,01340145	0,01336356	0,09371135	0,09372719	1	1	3	0	1	1	1	0	340	562
1	1	27	13	0	11	1	1	0,01338835	0,01338676	0,09370601	0,09370517	1	1	0	2	1	2	0	1	257	563
1	1	27	14	0	11	1	1	0,01340181	0,01340204	0,09369926	0,09369853	1	1	2	2	1	1	1	0	301	564
1	1	27	15	0	11	1	1	0,01337702	0,01340669	0,09369957	0,09370327	1	1	1	0	1	1	1	0	354	565
1	1	27	16	0	11	1	1	0,01338439	0,01342892	0,09367859	0,09371551	1	2	3	2	2	2	1	0	383	566
1	1	27	17	0	11	1	1	0,01338082	0,01339013	0,09371386	0,0937287	1	2	2	2	2	2	1	0	404	567
1	1	27	18	0	11	1	1	0,01340629	0,01335848	0,09371463	0,09373784	1	2	1	1	2	2	1	0	434	568
1	1	27	19	0	11	1	1	0,01338779	0,01338957	0,09370474	0,09372052	1	1	3	1	1	1	1	0	391	569
1	1	27	20	0	11	1	1	0,01337544	0,01338299	0,09375473	0,09372049	1	2	0	2	2	1	0	1	261	570
1	1	27	21	0	11	1	1	0,01337832	0,01337974	0,09372537	0,09370075	1	2	2	0	2	2	1	0	384	571
1	1	27	22	0	11	1	1	0,0133862	0,01343127	0,09367654	0,09371595	1	1	1	2	1	1	1	0	301	572
1	1	28	1	0	11	1	1	0,01338062	0,0133966	0,09372446	0,09371574	1	1	1	0	1	1	1	0	343	573
1	1	28	2	0	11	1	1	0,01339284	0,01344454	0,09367184	0,09372895	1	2	2	0	2	2	1	0	340	574
1	1	28	3	0	11	1	1	0,01338816	0,01340217	0,09370527	0,09371379	1	1	1	1	1	1	1	0	345	575
1	1	28	4	0	11	1	1	0,01339584	0,01338531	0,09372374	0,09370948	1	2	1	0	2	2	1	0	367	576
1	1	28	5	0	11	1	1	0,01338529	0,01337353	0,09371741	0,09370242	1	1	0	2	1	1	1	0	372	577
1	1	28	6	0	11	1	1	0,01337606	0,01338296	0,09372507	0,0937111	1	2	3	2	2	2	1	0	321	578
1	1	28	7	0	11	1	1	0,01337523	0,01339586	0,09371753	0,09372401	1	1	3	2	1	1	1	0	335	579
1	1	28	8	0	11	1	1	0,01334313	0,01336478	0,09372684	0,09386772	1	1	2	1	1	1	1	0	396	580
1	1	28	9	0	11	1	1	0,013392	0,01338255	0,09373051	0,09371545	1	1	2	0	1	1	1	0	385	581
1	1	28	10	0	11	1	1	0,01339138	0,01337628	0,09372258	0,09372915	1	1	3	1	1	1	1	0	343	582
1	1	28	11	0	11	1	1	0,01339847	0,0133766	0,0937104	0,0937059	1	1	0	1	1	1	1	0	372	583
1	1	28	12	0	11	1	1	0,01340018	0,01339094	0,09371353	0,09372251	1	2	1	1	2	2	1	0	425	584
1	1	28	13	0	11	1	1	0,01339057	0,01341729	0,09368154	0,09369953	1	2	3	1	2	2	1	0	407	585
1	1	28	14	0	11	1	1	0,01340243	0,01338355	0,09373499	0,09372567	1	2	0	2	2	1	0	1	228	586
1	1	28	15	0	11	1	1	0,01339287	0,01342282	0,09366711	0,0937177	1	2	2	1	2	1	0	1	279	587
1	1	28	16	0	11	1	1	0,01339381	0,01338682	0,0937241	0,09370788	1	2	2	2	2	2	1	0	330	588
1	1	28	17	0	11	1	1	0,0133751	0,01338249	0,09371756	0,09370136	1	1	2	2	1	1	1	0	303	589
1	1	28	18	0	11	1	1	0,01337897	0,01338366	0,09373017	0,09372366	1	2	3	0	2	2	1	0	324	590
1	1	28	19	0	11	1	1	0,0133808	0,01339153	0,09371736	0,09371744	1	1	3	0	1	1	1	0	322	591
1	1	28	20	0	11	1	1	0,0133736	0,01336977	0,09372455	0,09373646	1	1	1	2	1	1	1	0	391	592
1	1	28	21	0	11	1	1	0,01339129	0,01338274	0,09370822	0,09371998	1	2	1	2	2	2	1	0	389	593
1	1	28	22	0	11	1	1	0,0133913	0,01337593	0,09372394	0,09371897	1	2	0	1	2	2	1	0	338	594
1	1	29	1	0	11	1	1	0,01337632	0,01339084	0,09373284	0,09372321	1	2	0	0	2	2	1	0	353	595
1	1	29	2	0	11	1	1	0,01337893	0,01340063	0,09373606	0,09370504	1	1	0	0	1	1	1	0	406	596
1	1	29	3	0	11	1	1	0,01332838	0,01338776	0,09372962	0,09371351	1	1	0	0	1	1	1	0	347	597
1	1	29	4	0	11	1	1	0,01337556	0,013382	0,09371817	0,09369822	1	2	0	0	2	2	1	0	320	598
1	1	29	5	0	11	1	1	0,01337791	0,01337647	0,09373135	0,09372932	1	1	0	0	1	1	1	0	294	599
1	1	29	6	0	11	1	1	0,01338883	0,01338633	0,09370763	0,09370941	1	2	0	0	2	1	0	1	339	600
1	1	29	7	0	11	1	1	0,01337405	0,01338959	0,09374336	0,09372124	1	2	0	0	2	2	1	0	318	601
1	1	29	8	0	11	1	1	0,01338834	0,01339057	0,09373008	0,09370608	1	2	0	0	2	2	1	0	371	602
1	1	29	9	0	11	1	1	0,01339426	0,01338573	0,09373051	0,0937332	1	1	0	0	1	1	1	0	345	603
1	1	29	10	0	11	1	1	0,01341144	0,01333922	0,09371929	0,09369646	1	1	0	0	1	1	1	0	574	604
1	1	29	11	0	11	1	1	0,01338066	0,01337792	0,09372898	0,09372188	1	2	0	0	2	2	1	0	283	605
1	1	29	12	0	11	1	1	0,01338523	0,01337865	0,09370556	0,09371077	1	1	0	0	1	1	1	0	304	606
1	1	29	13	0	11	1	1	0,01338213	0,01337284	0,09372174	0,09372775	1	2	0	0	2	2	1	0	294	607
1	1	29	14	0	11	1	1	0,0133809	0,01338547	0,09370926	0,09370744	1	2	0	0	2	2	1	0	331	608
1	1	29	15	0	11	1	1	0,01339338	0,0134391	0,09366264	0,09372386	1	2	0	0	2	2	1	0	320	609
1	1	29	16	0	11	1	1	0,01338603	0,01344062	0,0936471	0,09371339	1	1	0	0	1	1	1	0	318	610
1	1	29	17	0	11	1	1	0,01341411	0,01337446	0,09372454	0,09374474	1	1	0	0	1	1	1	0	323	611
1	1	29	18	0	11	1	1	0,01339728	0,0133959	0,09369964	0,09371387	1	1	0	0	1	1	1	0	329	612
1	1	29	19	0	11	1	1	0,01340649	0,01338631	0,09371815	0,09371693	1	1	0	0	1	1	1	0	302	613
1	1	29	20	0	11	1	1	0,01336717	0,01340299	0,09372298	0,09370243	1	1	0	0	1	1	1	0	427	614
1	1	29	21	0	11	1	1	0,01338807	0,01339121	0,09372193	0,09372099	1	2	0	0	2	2	1	0	400	615
1	1	29	22	0	11	1	1	0,01338168	0,01339962	0,09372599	0,09369785	1	2	0	0	2	2	1	0	421	616
1	1	30	1	0	11	1	1	0,01339907	0,01339726	0,09370436	0,09372366	1	2	0	1	2	2	1	0	350	617
1	1	30	2	0	11	1	1	0,01338166	0,01339108	0,09371014	0,09370533	1	1	3	2	1	1	1	0	396	618
1	1	30	3	0	11	1	1	0,0134048	0,01338658	0,09372298	0,09371862	1	1	2	1	1	1	1	0	377	619
1	1	30	4	0	11	1	1	0,0133806	0,01339448	0,09372777	0,09374624	1	1	3	0	1	1	1	0	366	620
1	1	30	5	0	11	1	1	0,01337884	0,01339393	0,09372377	0,09372409	1	2	2	2	2	2	1	0	347	621
1	1	30	6	0	11	1	1	0,01339582	0,013397	0,09370991	0,09367952	1	1	0	2	1	1	1	0	408	622
1	1	30	7	0	11	1	1	0,01339729	0,01342911	0,09368464	0,09371454	1	2	1	0	2	2	1	0	366	623
1	1	30	8	0	11	1	1	0,01338694	0,01338395	0,09371653	0,09370583	1	1	2	2	1	1	1	0	315	624
1	1	30	9	0	11	1	1	0,01337046	0,01339723	0,09372278	0,09370983	1	2	1	2	2	2	1	0	320	625
1	1	30	10	0	11	1	1	0,01336766	0,01339934	0,09371797	0,09371368	1	2	1	1	2	2	1	0	422	626
1	1	30	11	0	11	1	1	0,01337818	0,01337794	0,0937287	0,09369164	1	2	2	1	2	2	1	0	459	627
1	1	30	12	0	11	1	1	0,01339622	0,01338005	0,09373111	0,09371215	1	1	0	1	1	1	1	0	328	628
1	1	30	13	0	11	1	1	0,01339688	0,01337034	0,09373778	0,0937397	1	2	3	0	2	2	1	0	398	629
1	1	30	14	0	11	1	1	0,01338645	0,01339777	0,09369612	0,09372047	1	1	1	2	1	1	1	0	299	630
1	1	30	15	0	11	1	1	0,01339391	0,01339433	0,0937109	0,0937349	1	1	3	1	1	1	1	0	408	631
1	1	30	16	0	11	1	1	0,01338975	0,01341277	0,09368233	0,09371425	1	2	3	2	2	2	1	0	341	632
1	1	30	17	0	11	1	1	0,01339376	0,01340028	0,09373973	0,09373056	1	1	1	1	1	1	1	0	411	633
1	1	30	18	0	11	1	1	0,01338663	0,01339246	0,09372595	0,09370383	1	2	3	1	2	2	1	0	320	634
1	1	30	19	0	11	1	1	0,01344448	0,01333504	0,09373147	0,09373296	1	2	2	0	2	2	1	0	389	635
1	1	30	20	0	11	1	1	0,0133827	0,01339563	0,09371667	0,0937061	1	1	2	0	1	1	1	0	338	636
1	1	30	21	0	11	1	1	0,01340503	0,01337927	0,09371814	0,09370859	1	1	1	0	1	1	1	0	392	637
1	1	30	22	0	11	1	1	0,01336601	0,01339254	0,09371727	0,09369622	1	2	0	2	2	2	1	0	397	638
1	1	31	1	0	11	1	1	0,01339052	0,01338699	0,09371439	0,09370824	1	2	2	1	2	2	1	0	419	639
1	1	31	2	0	11	1	1	0,01339194	0,01344126	0,09367964	0,09371664	1	2	1	2	2	2	1	0	409	640
1	1	31	3	0	11	1	1	0,01339792	0,01337612	0,09374768	0,09372887	1	2	3	2	2	2	1	0	445	641
1	1	31	4	0	11	1	1	0,01338129	0,01339895	0,09372098	0,09371743	1	1	1	0	1	1	1	0	364	642
1	1	31	5	0	11	1	1	0,01339398	0,01345113	0,09365731	0,09371208	1	2	2	2	2	2	1	0	328	643
1	1	31	6	0	11	1	1	0,01336917	0,01338894	0,0937173	0,09369625	1	1	3	2	1	1	1	0	310	644
1	1	31	7	0	11	1	1	0,01338394	0,01337228	0,09373667	0,09373716	1	1	1	1	1	1	1	0	715	645
1	1	31	8	0	11	1	1	0,0133753	0,01339834	0,09371124	0,0937318	1	1	3	1	1	1	1	0	397	646
1	1	31	9	0	11	1	1	0,0134174	0,0134061	0,09365386	0,09375933	1	2	2	0	2	2	1	0	347	647
1	1	31	10	0	11	1	1	0,01338717	0,01338983	0,09370508	0,09371738	1	1	0	2	1	2	0	1	240	648
1	1	31	11	0	11	1	1	0,01339936	0,01349687	0,09365157	0,09371081	1	2	3	1	2	2	1	0	419	649
1	1	31	12	0	11	1	1	0,01336891	0,0133895	0,09371718	0,09368739	1	2	3	0	2	1	0	1	272	650
1	1	31	13	0	11	1	1	0,01339866	0,01339478	0,09371632	0,09372541	1	2	1	1	2	2	1	0	419	651
1	1	31	14	0	11	1	1	0,0133823	0,0134047	0,09371461	0,09369158	1	1	1	2	1	1	1	0	304	652
1	1	31	15	0	11	1	1	0,01339006	0,01338933	0,09373191	0,09372661	1	1	2	2	1	1	1	0	334	653
1	1	31	16	0	11	1	1	0,013403	0,01337558	0,09372198	0,09369761	1	1	0	1	1	1	1	0	283	654
1	1	31	17	0	11	1	1	0,01342543	0,01334741	0,09372378	0,09373562	1	1	2	1	1	1	1	0	397	655
1	1	31	18	0	11	1	1	0,01337144	0,0133863	0,09373245	0,0937038	1	2	0	1	2	2	1	0	283	656
1	1	31	19	0	11	1	1	0,01340085	0,01336851	0,09372544	0,09371456	1	2	0	2	2	1	0	1	248	657
1	1	31	20	0	11	1	1	0,01338209	0,0134164	0,09370244	0,09371906	1	1	3	0	1	1	1	0	397	658
1	1	31	21	0	11	1	1	0,01338723	0,01339111	0,09372595	0,09371797	1	2	1	0	2	2	1	0	401	659
1	1	31	22	0	11	1	1	0,01337885	0,01339954	0,09372296	0,0937064	1	1	2	0	1	1	1	0	326	660
1	1	32	1	0	11	1	1	0,01338072	0,01341125	0,09369475	0,09374183	1	2	3	1	2	2	1	0	378	661
1	1	32	2	0	11	1	1	0,01339141	0,01341112	0,09368404	0,0937012	1	1	2	2	1	1	1	0	294	662
1	1	32	3	0	11	1	1	0,01340123	0,01338575	0,09371903	0,09371813	1	1	1	1	1	1	1	0	396	663
1	1	32	4	0	11	1	1	0,01337695	0,013425	0,09369484	0,0937077	1	1	3	1	1	1	1	0	378	664
1	1	32	5	0	11	1	1	0,01339868	0,01338033	0,09372696	0,09372519	1	2	0	1	2	2	1	0	295	665
1	1	32	6	0	11	1	1	0,0133707	0,01339941	0,09372968	0,09372018	1	2	1	0	2	2	1	0	412	666
1	1	32	7	0	11	1	1	0,01340235	0,01338508	0,09372312	0,09369735	1	1	0	2	1	1	1	0	441	667
1	1	32	8	0	11	1	1	0,01336813	0,01338947	0,09371844	0,09370716	1	2	1	2	2	2	1	0	398	668
1	1	32	9	0	11	1	1	0,01338522	0,01338747	0,09372706	0,09371526	1	1	2	0	1	1	1	0	367	669
1	1	32	10	0	11	1	1	0,01337708	0,01346129	0,0936469	0,0937223	1	2	2	0	2	2	1	0	385	670
1	1	32	11	0	11	1	1	0,01338918	0,01337565	0,09371082	0,09372494	1	2	2	1	2	2	1	0	486	671
1	1	32	12	0	11	1	1	0,01338569	0,01337884	0,09371387	0,09371595	1	2	0	2	2	2	1	0	499	672
1	1	32	13	0	11	1	1	0,01338603	0,01337555	0,09372384	0,0937191	1	1	2	1	1	1	1	0	379	673
1	1	32	14	0	11	1	1	0,01339198	0,01338844	0,0936933	0,09372739	1	2	3	2	2	2	1	0	422	674
1	1	32	15	0	11	1	1	0,01338459	0,01338778	0,09371679	0,09372464	1	2	2	2	2	2	1	0	377	675
1	1	32	16	0	11	1	1	0,01339041	0,01343355	0,09366219	0,09375577	1	1	1	2	1	1	1	0	336	676
1	1	32	17	0	11	1	1	0,01340394	0,01338482	0,0937154	0,09369255	1	1	3	2	1	1	1	0	351	677
1	1	32	18	0	11	1	1	0,01338353	0,01340279	0,09372477	0,09370694	1	1	3	0	1	1	1	0	385	678
1	1	32	19	0	11	1	1	0,0133751	0,01339324	0,09373159	0,09369825	1	2	1	1	2	2	1	0	456	679
1	1	32	20	0	11	1	1	0,0133863	0,01340488	0,09371356	0,09369679	1	2	3	0	2	2	1	0	406	680
1	1	32	21	0	11	1	1	0,01339287	0,01338332	0,09372959	0,09372429	1	1	0	1	1	1	1	0	387	681
1	1	32	22	0	11	1	1	0,01337759	0,01344854	0,0936821	0,09370041	1	1	1	0	1	1	1	0	409	682
1	1	33	1	0	11	1	1	0,01338986	0,0133887	0,09373329	0,09372014	1	1	1	2	1	1	1	0	344	683
1	1	33	2	0	11	1	1	0,01338377	0,01339551	0,09371735	0,09370849	1	2	2	2	2	2	1	0	334	684
1	1	33	3	0	11	1	1	0,01340774	0,01343621	0,09367413	0,09374149	1	2	3	1	2	2	1	0	418	685
1	1	33	4	0	11	1	1	0,01338755	0,01347275	0,09364363	0,09369827	1	2	1	2	2	2	1	0	400	686
1	1	33	5	0	11	1	1	0,01339525	0,01338215	0,0937449	0,09372075	1	2	1	0	2	2	1	0	439	687
1	1	33	6	0	11	1	1	0,01337274	0,01339504	0,09371601	0,09369429	1	2	0	2	2	1	0	1	242	688
1	1	33	7	0	11	1	1	0,01339621	0,01339379	0,09371796	0,09371683	1	1	0	2	1	1	1	0	380	689
1	1	33	8	0	11	1	1	0,01338612	0,0133955	0,09371728	0,0937059	1	1	2	0	1	1	1	0	419	690
1	1	33	9	0	11	1	1	0,01339058	0,0134503	0,09368147	0,09372972	1	1	1	0	1	1	1	0	392	691
1	1	33	10	0	11	1	1	0,01338068	0,01347489	0,09364851	0,09370222	1	1	0	1	1	1	1	0	421	692
1	1	33	11	0	11	1	1	0,01340032	0,01338078	0,09374282	0,09371909	1	1	1	1	1	1	1	0	419	693
1	1	33	12	0	11	1	1	0,01337742	0,01339625	0,09371305	0,09369641	1	1	2	1	1	1	1	0	395	694
1	1	33	13	0	11	1	1	0,01338193	0,01337111	0,09374799	0,09372124	1	1	3	0	1	1	1	0	397	695
1	1	33	14	0	11	1	1	0,0132601	0,01340066	0,0937169	0,09370641	1	2	3	0	2	2	1	0	435	696
1	1	33	15	0	11	1	1	0,01339232	0,01337842	0,09372026	0,09371442	1	1	3	2	1	1	1	0	392	697
1	1	33	16	0	11	1	1	0,0133958	0,01337992	0,09371139	0,0937181	1	2	0	1	2	2	1	0	391	698
1	1	33	17	0	11	1	1	0,01341123	0,01336298	0,09374501	0,09373091	1	1	2	2	1	1	1	0	322	699
1	1	33	18	0	11	1	1	0,01338574	0,01345306	0,09364156	0,09372093	1	2	1	1	2	2	1	0	456	700
1	1	33	19	0	11	1	1	0,01338509	0,01339454	0,09370734	0,09373481	1	1	3	1	1	1	1	0	333	701
1	1	33	20	0	11	1	1	0,0133791	0,01339962	0,09370475	0,09370601	1	2	2	0	2	2	1	0	299	702
1	1	33	21	0	11	1	1	0,01340204	0,01344233	0,09365978	0,09372199	1	2	3	2	2	2	1	0	424	703
1	1	33	22	0	11	1	1	0,01337253	0,01339565	0,09375081	0,09369263	1	2	2	1	2	1	0	1	301	704
1	1	34	1	0	11	1	1	0,01339945	0,01341157	0,09370226	0,09370323	1	1	2	2	1	1	1	0	308	705
1	1	34	2	0	11	1	1	0,01337889	0,01338871	0,09372776	0,09370348	1	2	0	2	2	1	0	1	217	706
1	1	34	3	0	11	1	1	0,0134138	0,01337945	0,09371744	0,09371364	1	2	1	1	2	2	1	0	564	707
1	1	34	4	0	11	1	1	0,0133825	0,01340139	0,09371647	0,09371976	1	1	0	2	1	1	1	0	371	708
1	1	34	5	0	11	1	1	0,01339224	0,0134001	0,09372837	0,09371983	1	1	3	1	1	1	1	0	383	709
1	1	34	6	0	11	1	1	0,01338867	0,01342365	0,09368891	0,09370575	1	1	2	1	1	1	1	0	492	710
1	1	34	7	0	11	1	1	0,0133985	0,01338329	0,09372983	0,0937098	1	1	1	2	1	1	1	0	345	711
1	1	34	8	0	11	1	1	0,01338368	0,01338366	0,09372657	0,09370708	1	1	2	0	1	1	1	0	406	712
1	1	34	9	0	11	1	1	0,01339529	0,01336664	0,09374421	0,09369352	1	2	0	1	2	2	1	0	369	713
1	1	34	10	0	11	1	1	0,01337909	0,01339574	0,09376217	0,09372993	1	2	3	0	2	2	1	0	384	714
1	1	34	11	0	11	1	1	0,01338794	0,0133803	0,09372553	0,09371993	1	2	1	0	2	2	1	0	359	715
1	1	34	12	0	11	1	1	0,01339597	0,01339147	0,09370027	0,09371466	1	2	3	1	2	2	1	0	396	716
1	1	34	13	0	11	1	1	0,01339321	0,01342612	0,09367925	0,09372071	1	2	2	2	2	2	1	0	337	717
1	1	34	14	0	11	1	1	0,01338608	0,01339205	0,0937034	0,09372282	1	1	1	1	1	1	1	0	431	718
1	1	34	15	0	11	1	1	0,01338231	0,01339674	0,09371591	0,09371287	1	2	1	2	2	2	1	0	348	719
1	1	34	16	0	11	1	1	0,01338579	0,01345439	0,09364146	0,09371193	1	2	3	2	2	2	1	0	356	720
1	1	34	17	0	11	1	1	0,01339893	0,01338776	0,09372284	0,09368387	1	1	3	2	1	1	1	0	406	721
1	1	34	18	0	11	1	1	0,01338348	0,01339453	0,09371836	0,09371003	1	1	1	0	1	1	1	0	428	722
1	1	34	19	0	11	1	1	0,01338225	0,01338881	0,09372835	0,0937254	1	1	3	0	1	1	1	0	393	723
1	1	34	20	0	11	1	1	0,01337869	0,0133989	0,09371728	0,09369362	1	2	2	1	2	2	1	0	438	724
1	1	34	21	0	11	1	1	0,01340633	0,01338233	0,0937093	0,09370309	1	1	0	1	1	1	1	0	276	725
1	1	34	22	0	11	1	1	0,01336923	0,01341457	0,09369303	0,09369559	1	2	2	0	2	2	1	0	320	726
1	1	35	1	0	11	1	1	0,01339728	0,01339267	0,09370868	0,09371766	1	1	2	2	1	1	1	0	332	727
1	1	35	2	0	11	1	1	0,01339333	0,01338824	0,09373007	0,09371306	1	1	0	2	1	2	0	1	216	728
1	1	35	3	0	11	1	1	0,01339777	0,01336907	0,09372813	0,09373615	1	2	2	1	2	1	0	1	269	729
1	1	35	4	0	11	1	1	0,01338805	0,01337763	0,09372161	0,09371056	1	1	2	0	1	1	1	0	385	730
1	1	35	5	0	11	1	1	0,01336894	0,01338753	0,09373726	0,09371512	1	1	3	2	1	1	1	0	373	731
1	1	35	6	0	11	1	1	0,01336872	0,01341472	0,09369583	0,09371847	1	1	2	1	1	1	1	0	433	732
1	1	35	7	0	11	1	1	0,0133711	0,01337961	0,09375617	0,0937497	1	2	0	1	2	2	1	0	408	733
1	1	35	8	0	11	1	1	0,01339848	0,01337698	0,09371079	0,0936693	1	2	1	0	2	2	1	0	383	734
1	1	35	9	0	11	1	1	0,01339717	0,0133691	0,09372848	0,09373273	1	2	2	0	2	2	1	0	364	735
1	1	35	10	0	11	1	1	0,01339846	0,01337869	0,09370195	0,09371873	1	2	1	1	2	2	1	0	416	736
1	1	35	11	0	11	1	1	0,01339569	0,01339312	0,09370991	0,09374605	1	2	3	2	2	2	1	0	393	737
1	1	35	12	0	11	1	1	0,01338899	0,01340467	0,09369109	0,09370356	1	2	0	2	2	2	1	0	489	738
1	1	35	13	0	11	1	1	0,01339827	0,01338785	0,09371576	0,09371602	1	2	2	2	2	2	1	0	375	739
1	1	35	14	0	11	1	1	0,01338522	0,01339376	0,09372492	0,09370277	1	2	1	2	2	2	1	0	404	740
1	1	35	15	0	11	1	1	0,01338698	0,0133896	0,09373488	0,09374863	1	1	0	1	1	1	1	0	376	741
1	1	35	16	0	11	1	1	0,01336474	0,01340072	0,0937362	0,09369178	1	2	3	1	2	2	1	0	389	742
1	1	35	17	0	11	1	1	0,01340248	0,01337656	0,09372964	0,0937141	1	1	3	1	1	1	1	0	419	743
1	1	35	18	0	11	1	1	0,01336782	0,01339346	0,09372273	0,09371094	1	1	1	0	1	1	1	0	411	744
1	1	35	19	0	11	1	1	0,01338461	0,01337892	0,09372972	0,09371673	1	2	3	0	2	2	1	0	347	745
1	1	35	20	0	11	1	1	0,01336675	0,01339517	0,09372067	0,09371939	1	1	1	2	1	1	1	0	307	746
1	1	35	21	0	11	1	1	0,01339003	0,01337271	0,09371441	0,09372242	1	1	1	1	1	1	1	0	410	747
1	1	35	22	0	11	1	1	0,01338868	0,01338567	0,09372872	0,09371741	1	1	3	0	1	1	1	0	358	748
1	1	36	1	0	11	1	1	0,0133942	0,013392	0,09372407	0,0937094	1	1	0	0	1	1	1	0	310	749
1	1	36	2	0	11	1	1	0,01339291	0,01338946	0,09372206	0,09372305	1	2	0	0	2	1	0	1	298	750
1	1	36	3	0	11	1	1	0,01338296	0,01338661	0,09371022	0,09371298	1	2	0	0	2	2	1	0	415	751
1	1	36	4	0	11	1	1	0,01339327	0,01346036	0,09364634	0,09369597	1	1	0	0	1	1	1	0	266	752
1	1	36	5	0	11	1	1	0,01338389	0,01340475	0,09369703	0,09370965	1	2	0	0	2	2	1	0	351	753
1	1	36	6	0	11	1	1	0,01336514	0,01338917	0,09371586	0,09372225	1	1	0	0	1	1	1	0	356	754
1	1	36	7	0	11	1	1	0,01339118	0,01338868	0,09372937	0,09371831	1	2	0	0	2	2	1	0	298	755
1	1	36	8	0	11	1	1	0,01338862	0,01339251	0,09372441	0,09373211	1	1	0	0	1	1	1	0	279	756
1	1	36	9	0	11	1	1	0,01338232	0,01339487	0,09371824	0,09370739	1	1	0	0	1	1	1	0	372	757
1	1	36	10	0	11	1	1	0,01339272	0,01338821	0,09372307	0,09373111	1	2	0	0	2	2	1	0	377	758
1	1	36	11	0	11	1	1	0,01336918	0,01338638	0,09371925	0,09369379	1	2	0	0	2	2	1	0	401	759
1	1	36	12	0	11	1	1	0,01337811	0,01338487	0,09373404	0,09371096	1	1	0	0	1	1	1	0	348	760
1	1	36	13	0	11	1	1	0,01338962	0,01338021	0,09372059	0,09372337	1	2	0	0	2	2	1	0	354	761
1	1	36	14	0	11	1	1	0,01338426	0,01337011	0,09372672	0,0937329	1	1	0	0	1	1	1	0	271	762
1	1	36	15	0	11	1	1	0,01339346	0,01339173	0,09369955	0,09371645	1	1	0	0	1	1	1	0	364	763
1	1	36	16	0	11	1	1	0,01339324	0,01337494	0,09372283	0,0937226	1	1	0	0	1	1	1	0	370	764
1	1	36	17	0	11	1	1	0,01339563	0,01340309	0,09367656	0,0937127	1	2	0	0	2	1	0	1	353	765
1	1	36	18	0	11	1	1	0,01346745	0,01329786	0,09372627	0,09371372	1	2	0	0	2	2	1	0	301	766
1	1	36	19	0	11	1	1	0,01337729	0,01340721	0,09369863	0,09372186	1	1	0	0	1	1	1	0	319	767
1	1	36	20	0	11	1	1	0,01338971	0,01337097	0,09372672	0,0937369	1	2	0	0	2	2	1	0	316	768
1	1	36	21	0	11	1	1	0,0133941	0,01338138	0,09370742	0,09371035	1	1	0	0	1	1	1	0	329	769
1	1	36	22	0	11	1	1	0,01339627	0,01337345	0,09372102	0,09373979	1	2	0	0	2	0	0	1	335	770
1	1	37	1	0	11	1	1	0,01336891	0,01339798	0,09370763	0,09369005	1	1	2	1	1	0	0	1	801	771
1	1	37	2	0	11	1	1	0,01339571	0,01338447	0,09372295	0,09372657	1	1	0	2	1	1	1	0	333	772
1	1	37	3	0	11	1	1	0,01335375	0,01340024	0,09371818	0,0936941	1	2	2	1	2	2	1	0	352	773
1	1	37	4	0	11	1	1	0,01342075	0,01334689	0,09379528	0,09372725	1	1	0	1	1	1	1	0	254	774
1	1	37	5	0	11	1	1	0,01337856	0,01340143	0,09371456	0,09369692	1	1	1	1	1	2	0	1	291	775
1	1	37	6	0	11	1	1	0,01339277	0,01339489	0,09372113	0,09373521	1	2	1	1	2	2	1	0	461	776
1	1	37	7	0	11	1	1	0,0133936	0,01346163	0,0936322	0,09371528	1	1	2	0	1	1	1	0	315	777
1	1	37	8	0	11	1	1	0,01340044	0,01338923	0,09371534	0,0937328	1	2	2	0	2	2	1	0	330	778
1	1	37	9	0	11	1	1	0,0133599	0,01340094	0,09371808	0,09369986	1	2	3	2	2	2	1	0	469	779
1	1	37	10	0	11	1	1	0,01338166	0,01338949	0,09373828	0,0937261	1	2	0	2	2	2	1	0	515	780
1	1	37	11	0	11	1	1	0,01337337	0,01340069	0,09371653	0,09369617	1	1	3	2	1	1	1	0	371	781
1	1	37	12	0	11	1	1	0,01338456	0,01338682	0,09372871	0,09371082	1	1	2	2	1	1	1	0	390	782
1	1	37	13	0	11	1	1	0,0133903	0,01336615	0,09371921	0,0936891	1	1	1	2	1	1	1	0	427	783
1	1	37	14	0	11	1	1	0,01339763	0,01336705	0,09373406	0,09371798	1	1	3	1	1	1	1	0	416	784
1	1	37	15	0	11	1	1	0,01338018	0,01344524	0,09365892	0,09372397	1	2	1	0	2	2	1	0	349	785
1	1	37	16	0	11	1	1	0,01338339	0,0133673	0,09371526	0,09372041	1	1	1	0	1	1	1	0	350	786
1	1	37	17	0	11	1	1	0,01337755	0,0134351	0,09365788	0,09369705	1	2	2	2	2	2	1	0	376	787
1	1	37	18	0	11	1	1	0,01339193	0,0133768	0,09372322	0,09372336	1	1	3	0	1	1	1	0	317	788
1	1	37	19	0	11	1	1	0,01337683	0,01339198	0,0937078	0,09371845	1	2	3	1	2	2	1	0	387	789
1	1	37	20	0	11	1	1	0,01340138	0,01338742	0,0937194	0,09372787	1	2	0	1	2	2	1	0	336	790
1	1	37	21	0	11	1	1	0,01339371	0,01339074	0,0937123	0,09372551	1	2	1	2	2	2	1	0	373	791
1	1	37	22	0	11	1	1	0,01340734	0,0133905	0,09370732	0,09371878	1	2	3	0	2	2	1	0	474	792
1	1	38	1	0	11	1	1	0,01339111	0,01337604	0,09371285	0,09372278	1	1	3	2	1	1	1	0	357	793
1	1	38	2	0	11	1	1	0,01339136	0,01341165	0,09368777	0,09370841	1	2	3	1	2	2	1	0	373	794
1	1	38	3	0	11	1	1	0,01339224	0,01338254	0,09370507	0,0937284	1	2	2	1	2	2	1	0	464	795
1	1	38	4	0	11	1	1	0,01338236	0,01339285	0,09370982	0,09372997	1	2	1	0	2	2	1	0	397	796
1	1	38	5	0	11	1	1	0,01339185	0,01339203	0,09370532	0,09371725	1	1	1	2	1	1	1	0	378	797
1	1	38	6	0	11	1	1	0,01340626	0,01338444	0,09371951	0,0937133	1	1	1	1	1	1	1	0	480	798
1	1	38	7	0	11	1	1	0,01338283	0,01339903	0,09374127	0,0937086	1	1	0	2	1	1	1	0	468	799
1	1	38	8	0	11	1	1	0,0133831	0,01339142	0,09372631	0,09371655	1	2	3	0	2	2	1	0	450	800
1	1	38	9	0	11	1	1	0,0133839	0,0134067	0,09373383	0,09369357	1	2	1	1	2	2	1	0	399	801
1	1	38	10	0	11	1	1	0,01339873	0,01338458	0,09372919	0,09373152	1	2	2	0	2	2	1	0	428	802
1	1	38	11	0	11	1	1	0,01337863	0,01339405	0,09371412	0,09369981	1	1	0	1	1	1	1	0	298	803
1	1	38	12	0	11	1	1	0,01338123	0,01338633	0,09373152	0,09371929	1	2	3	2	2	2	1	0	391	804
1	1	38	13	0	11	1	1	0,01337053	0,01339942	0,0937103	0,09373087	1	2	2	2	2	2	1	0	359	805
1	1	38	14	0	11	1	1	0,01338305	0,01337633	0,09372933	0,09371698	1	1	2	2	1	1	1	0	370	806
1	1	38	15	0	11	1	1	0,01339649	0,01338044	0,09371397	0,09371937	1	1	2	0	1	1	1	0	479	807
1	1	38	16	0	11	1	1	0,0133944	0,01336235	0,09373335	0,09372674	1	1	2	1	1	1	1	0	412	808
1	1	38	17	0	11	1	1	0,01338853	0,013396	0,0936993	0,09371981	1	1	3	1	1	1	1	0	420	809
1	1	38	18	0	11	1	1	0,01340383	0,01338503	0,09370798	0,09377101	1	2	0	2	2	2	1	0	415	810
1	1	38	19	0	11	1	1	0,01339588	0,01339981	0,09369962	0,09371111	1	2	0	1	2	2	1	0	367	811
1	1	38	20	0	11	1	1	0,0133989	0,01340594	0,09370091	0,09368095	1	1	3	0	1	1	1	0	377	812
1	1	38	21	0	11	1	1	0,01337696	0,013397	0,09372879	0,09370571	1	2	1	2	2	2	1	0	364	813
1	1	38	22	0	11	1	1	0,01339806	0,0133793	0,09372627	0,09372721	1	1	1	0	1	1	1	0	308	814
1	1	39	1	0	11	1	1	0,01338166	0,01338787	0,09370534	0,09373316	1	1	1	1	1	1	1	0	325	815
1	1	39	2	0	11	1	1	0,01339457	0,01340537	0,093698	0,09372604	1	2	1	0	2	2	1	0	377	816
1	1	39	3	0	11	1	1	0,01339265	0,01345184	0,09364186	0,09371315	1	1	1	2	1	1	1	0	247	817
1	1	39	4	0	11	1	1	0,01340183	0,01338616	0,09371573	0,09371848	1	1	2	1	1	1	1	0	268	818
1	1	39	5	0	11	1	1	0,01339	0,01339471	0,09372294	0,09371285	1	1	3	1	1	1	1	0	377	819
1	1	39	6	0	11	1	1	0,0133861	0,013393	0,09372826	0,0937228	1	2	3	0	2	2	1	0	342	820
1	1	39	7	0	11	1	1	0,01338831	0,01339005	0,09371936	0,09371095	1	2	1	1	2	1	0	1	300	821
1	1	39	8	0	11	1	1	0,01339585	0,01339869	0,09370426	0,09372753	1	2	0	2	2	1	0	1	241	822
1	1	39	9	0	11	1	1	0,01336364	0,0133974	0,09372332	0,09371676	1	1	0	1	1	1	1	0	309	823
1	1	39	10	0	11	1	1	0,01337346	0,01338221	0,09371569	0,09371888	1	2	1	2	2	2	1	0	368	824
1	1	39	11	0	11	1	1	0,01339608	0,01337944	0,09372112	0,09372077	1	1	3	2	1	1	1	0	378	825
1	1	39	12	0	11	1	1	0,01340571	0,01337446	0,09371258	0,09372915	1	2	2	0	2	2	1	0	370	826
1	1	39	13	0	11	1	1	0,01338004	0,01338674	0,09370837	0,09372833	1	1	2	2	1	1	1	0	336	827
1	1	39	14	0	11	1	1	0,01339221	0,01340363	0,09370007	0,09372498	1	1	0	2	1	1	1	0	424	828
1	1	39	15	0	11	1	1	0,01338935	0,01339214	0,09370519	0,09370767	1	2	3	1	2	2	1	0	434	829
1	1	39	16	0	11	1	1	0,01339914	0,01338902	0,09371454	0,09371907	1	1	2	0	1	1	1	0	287	830
1	1	39	17	0	11	1	1	0,01338889	0,013389	0,09372929	0,09371249	1	2	0	1	2	2	1	0	484	831
1	1	39	18	0	11	1	1	0,01337998	0,01339238	0,09372726	0,09372257	1	1	3	0	1	1	1	0	362	832
1	1	39	19	0	11	1	1	0,01338555	0,01339391	0,09372048	0,09370986	1	1	1	0	1	1	1	0	400	833
1	1	39	20	0	11	1	1	0,01338319	0,01342687	0,09367836	0,09372266	1	2	2	1	2	1	0	1	285	834
1	1	39	21	0	11	1	1	0,01339663	0,01338686	0,09370422	0,09371952	1	2	2	2	2	2	1	0	383	835
1	1	39	22	0	11	1	1	0,01340371	0,01339402	0,09370571	0,0937175	1	2	3	2	2	2	1	0	372	836
1	1	40	1	0	11	1	1	0,01340423	0,01337806	0,09370601	0,09371929	1	2	2	1	2	1	0	1	311	837
1	1	40	2	0	11	1	1	0,0133976	0,01338149	0,09372892	0,09370862	1	1	0	1	1	1	1	0	253	838
1	1	40	3	0	11	1	1	0,01337885	0,0133884	0,09372515	0,09370503	1	2	2	0	2	2	1	0	359	839
1	1	40	4	0	11	1	1	0,0133711	0,0133821	0,09374371	0,09372353	1	1	2	1	1	1	1	0	310	840
1	1	40	5	0	11	1	1	0,01339291	0,01335518	0,09370807	0,09370577	1	1	2	0	1	1	1	0	500	841
1	1	40	6	0	11	1	1	0,01338798	0,01338402	0,09371021	0,09372954	1	2	0	2	2	2	1	0	407	842
1	1	40	7	0	11	1	1	0,01339566	0,01339964	0,09369315	0,0936996	1	1	2	2	1	1	1	0	277	843
1	1	40	8	0	11	1	1	0,01339301	0,01337146	0,09374571	0,09372825	1	1	3	0	1	1	1	0	402	844
1	1	40	9	0	11	1	1	0,01338792	0,01340799	0,09368746	0,09371048	1	2	0	1	2	2	1	0	314	845
1	1	40	10	0	11	1	1	0,01338819	0,01339439	0,09374519	0,09373494	1	2	1	2	2	2	1	0	473	846
1	1	40	11	0	11	1	1	0,01339008	0,0134586	0,09363663	0,09370906	1	2	3	2	2	2	1	0	378	847
1	1	40	12	0	11	1	1	0,01340731	0,01338053	0,09372622	0,09372283	1	1	3	2	1	1	1	0	319	848
1	1	40	13	0	11	1	1	0,01339532	0,01339178	0,09371817	0,09371223	1	1	3	1	1	1	1	0	320	849
1	1	40	14	0	11	1	1	0,01338515	0,01339023	0,0937285	0,09373245	1	1	0	2	1	2	0	1	234	850
1	1	40	15	0	11	1	1	0,0133871	0,01339876	0,09369733	0,09371433	1	1	1	2	1	1	1	0	301	851
1	1	40	16	0	11	1	1	0,01338935	0,01339268	0,09370961	0,09373526	1	2	3	1	2	2	1	0	397	852
1	1	40	17	0	11	1	1	0,01339612	0,013451	0,09363843	0,09371137	1	2	3	0	2	2	1	0	400	853
1	1	40	18	0	11	1	1	0,01339094	0,01338046	0,09372557	0,09374735	1	2	2	2	2	2	1	0	372	854
1	1	40	19	0	11	1	1	0,01339686	0,01338323	0,09372307	0,09371158	1	2	1	1	2	2	1	0	426	855
1	1	40	20	0	11	1	1	0,01339673	0,01338194	0,09373515	0,09373855	1	1	1	1	1	1	1	0	311	856
1	1	40	21	0	11	1	1	0,01337885	0,01340303	0,09371353	0,09369165	1	2	1	0	2	2	1	0	380	857
1	1	40	22	0	11	1	1	0,01340324	0,01337684	0,09372244	0,09371568	1	1	1	0	1	1	1	0	329	858
1	1	41	1	0	11	1	1	0,0133904	0,01340005	0,09369645	0,09368314	1	2	3	1	2	2	1	0	402	859
1	1	41	2	0	11	1	1	0,01340685	0,01338235	0,09371434	0,09372462	1	2	1	0	2	2	1	0	413	860
1	1	41	3	0	11	1	1	0,01337476	0,01339672	0,09372115	0,09369886	1	1	2	0	1	1	1	0	392	861
1	1	41	4	0	11	1	1	0,0134336	0,01334428	0,09373203	0,09372704	1	1	0	2	1	1	1	0	400	862
1	1	41	5	0	11	1	1	0,01336671	0,01340003	0,09372618	0,09371165	1	1	3	1	1	1	1	0	397	863
1	1	41	6	0	11	1	1	0,01339968	0,01338152	0,09372101	0,09370977	1	2	0	1	2	2	1	0	314	864
1	1	41	7	0	11	1	1	0,01335759	0,01338397	0,09372434	0,09370756	1	1	0	1	1	1	1	0	239	865
1	1	41	8	0	11	1	1	0,01338644	0,01337418	0,09373049	0,09371316	1	1	1	2	1	1	1	0	332	866
1	1	41	9	0	11	1	1	0,01334546	0,01344554	0,09366595	0,09373188	1	1	1	1	1	1	1	0	370	867
1	1	41	10	0	11	1	1	0,01339017	0,01344298	0,09364275	0,09371635	1	2	1	2	2	2	1	0	399	868
1	1	41	11	0	11	1	1	0,01337963	0,01338557	0,0937326	0,09371138	1	2	2	2	2	2	1	0	456	869
1	1	41	12	0	11	1	1	0,01338925	0,01337764	0,09372397	0,09371595	1	2	2	0	2	2	1	0	393	870
1	1	41	13	0	11	1	1	0,0133853	0,01339092	0,093711	0,09372923	1	2	3	2	2	2	1	0	406	871
1	1	41	14	0	11	1	1	0,01340088	0,01339032	0,0937142	0,09372029	1	1	3	2	1	1	1	0	332	872
1	1	41	15	0	11	1	1	0,01339993	0,01338387	0,09373128	0,09372248	1	2	1	1	2	2	1	0	398	873
1	1	41	16	0	11	1	1	0,01340465	0,01339145	0,0937146	0,09371735	1	1	2	1	1	1	1	0	367	874
1	1	41	17	0	11	1	1	0,01339128	0,01339304	0,09371734	0,09370719	1	2	3	0	2	2	1	0	348	875
1	1	41	18	0	11	1	1	0,01338221	0,01339796	0,09371269	0,09371669	1	2	2	1	2	2	1	0	473	876
1	1	41	19	0	11	1	1	0,013383	0,01340836	0,09371456	0,09368275	1	1	3	0	1	1	1	0	423	877
1	1	41	20	0	11	1	1	0,01340162	0,01344609	0,09367187	0,09371674	1	1	2	2	1	1	1	0	391	878
1	1	41	21	0	11	1	1	0,01338073	0,01340227	0,09370591	0,09369741	1	2	0	2	2	2	1	0	417	879
1	1	41	22	0	11	1	1	0,01337978	0,01338306	0,09375965	0,09372454	1	1	1	0	1	1	1	0	326	880
1	1	42	1	0	11	1	1	0,01337161	0,01340193	0,09371524	0,09371102	1	2	2	1	2	2	1	0	376	881
1	1	42	2	0	11	1	1	0,01337104	0,01339364	0,0937351	0,09371018	1	2	1	1	2	2	1	0	466	882
1	1	42	3	0	11	1	1	0,01341716	0,01336758	0,0937202	0,09370108	1	1	1	2	1	1	1	0	296	883
1	1	42	4	0	11	1	1	0,01340754	0,01337496	0,09372789	0,09370772	1	2	2	0	2	2	1	0	333	884
1	1	42	5	0	11	1	1	0,01338867	0,01337684	0,09372587	0,09371405	1	1	2	1	1	1	1	0	360	885
1	1	42	6	0	11	1	1	0,01337877	0,01338932	0,09372974	0,09371624	1	2	3	2	2	2	1	0	376	886
1	1	42	7	0	11	1	1	0,01338234	0,01338621	0,09374876	0,09371733	1	1	0	2	1	1	1	0	461	887
1	1	42	8	0	11	1	1	0,01338671	0,01340789	0,09368821	0,09372102	1	1	3	2	1	1	1	0	426	888
1	1	42	9	0	11	1	1	0,01339657	0,01338073	0,09370958	0,09371378	1	2	3	1	2	2	1	0	359	889
1	1	42	10	0	11	1	1	0,01339143	0,01337334	0,09373246	0,09371855	1	2	0	1	2	2	1	0	429	890
1	1	42	11	0	11	1	1	0,01340129	0,01337375	0,09370411	0,09372022	1	2	0	2	2	2	1	0	398	891
1	1	42	12	0	11	1	1	0,01339147	0,01339604	0,09371817	0,09376381	1	1	1	0	1	1	1	0	344	892
1	1	42	13	0	11	1	1	0,01341285	0,0133859	0,09368552	0,09370985	1	1	3	1	1	1	1	0	372	893
1	1	42	14	0	11	1	1	0,01338963	0,013386	0,09371735	0,09371763	1	2	1	2	2	2	1	0	356	894
1	1	42	15	0	11	1	1	0,01338545	0,01344579	0,09367641	0,09369716	1	2	3	0	2	2	1	0	416	895
1	1	42	16	0	11	1	1	0,01339307	0,01337936	0,09375296	0,0937278	1	1	2	2	1	1	1	0	296	896
1	1	42	17	0	11	1	1	0,01337696	0,01341624	0,09370058	0,09371495	1	1	1	1	1	1	1	0	522	897
1	1	42	18	0	11	1	1	0,01339924	0,01337309	0,09374394	0,09371396	1	2	2	2	2	2	1	0	391	898
1	1	42	19	0	11	1	1	0,01336232	0,0134045	0,09370212	0,0936979	1	1	3	0	1	1	1	0	324	899
1	1	42	20	0	11	1	1	0,01339336	0,01337147	0,09372865	0,09372527	1	2	1	0	2	2	1	0	394	900
1	1	42	21	0	11	1	1	0,01337294	0,01340777	0,09370177	0,09372359	1	1	0	1	1	1	1	0	303	901
1	1	42	22	0	11	1	1	0,01339892	0,0133601	0,09371612	0,09373701	1	1	2	0	1	1	1	0	372	902
1	1	43	1	0	11	1	1	0,01339861	0,01339787	0,09371093	0,09370872	1	1	0	0	1	1	1	0	283	903
1	1	43	2	0	11	1	1	0,01338601	0,01339597	0,09373822	0,09371172	1	1	0	0	1	1	1	0	383	904
1	1	43	3	0	11	1	1	0,01339206	0,01339327	0,09372021	0,09372699	1	1	0	0	1	1	1	0	378	905
1	1	43	4	0	11	1	1	0,01337691	0,01339637	0,09372202	0,09369647	1	1	0	0	1	1	1	0	394	906
1	1	43	5	0	11	1	1	0,0133928	0,01338744	0,0937224	0,09371108	1	2	0	0	2	1	0	1	357	907
1	1	43	6	0	11	1	1	0,0133895	0,01340098	0,09370819	0,09372925	1	2	0	0	2	2	1	0	371	908
1	1	43	7	0	11	1	1	0,01340299	0,01339342	0,09370673	0,09370123	1	2	0	0	2	2	1	0	366	909
1	1	43	8	0	11	1	1	0,0133876	0,01339144	0,09373958	0,09371253	1	2	0	0	2	2	1	0	397	910
1	1	43	9	0	11	1	1	0,01338814	0,01339429	0,09372377	0,09372478	1	1	0	0	1	1	1	0	356	911
1	1	43	10	0	11	1	1	0,01338652	0,01338883	0,09372933	0,09370617	1	1	0	0	1	1	1	0	367	912
1	1	43	11	0	11	1	1	0,01339035	0,01338966	0,09372328	0,09369365	1	2	0	0	2	1	0	1	349	913
1	1	43	12	0	11	1	1	0,01339078	0,01339827	0,09371771	0,09371854	1	1	0	0	1	1	1	0	320	914
1	1	43	13	0	11	1	1	0,01339936	0,01339759	0,09370559	0,09371118	1	2	0	0	2	2	1	0	293	915
1	1	43	14	0	11	1	1	0,01338425	0,01339538	0,09374075	0,09371325	1	2	0	0	2	2	1	0	390	916
1	1	43	15	0	11	1	1	0,01338777	0,0133926	0,09372481	0,09372847	1	1	0	0	1	1	1	0	336	917
1	1	43	16	0	11	1	1	0,01337551	0,0133988	0,09371707	0,09370648	1	2	0	0	2	2	1	0	317	918
1	1	43	17	0	11	1	1	0,01339203	0,01339519	0,09371482	0,0936945	1	2	0	0	2	2	1	0	338	919
1	1	43	18	0	11	1	1	0,01336711	0,01338157	0,09374289	0,09370253	1	2	0	0	2	2	1	0	375	920
1	1	43	19	0	11	1	1	0,01339181	0,01337672	0,09372709	0,09370076	1	1	0	0	1	1	1	0	389	921
1	1	43	20	0	11	1	1	0,01338856	0,01338269	0,09371368	0,09375551	1	1	0	0	1	1	1	0	427	922
1	1	43	21	0	11	1	1	0,01339216	0,0133771	0,09371394	0,09371982	1	1	0	0	1	1	1	0	384	923
1	1	43	22	0	11	1	1	0,01340437	0,0133697	0,09371011	0,09372054	1	2	0	0	2	2	1	0	365	924
1	1	44	1	0	11	1	1	0,01339415	0,01337793	0,09372936	0,09371563	1	1	1	0	1	1	1	0	358	925
1	1	44	2	0	11	1	1	0,01336956	0,01338859	0,09371832	0,09369599	1	2	3	2	2	2	1	0	408	926
1	1	44	3	0	11	1	1	0,01339063	0,01337584	0,09372659	0,09372155	1	2	2	1	2	2	1	0	417	927
1	1	44	4	0	11	1	1	0,01337452	0,01339516	0,09371591	0,09372883	1	2	0	1	2	2	1	0	363	928
1	1	44	5	0	11	1	1	0,01338167	0,01335315	0,09371565	0,0937334	1	2	2	0	2	2	1	0	384	929
1	1	44	6	0	11	1	1	0,01337883	0,01338866	0,09370381	0,09367924	1	2	2	2	2	2	1	0	379	930
1	1	44	7	0	11	1	1	0,01338207	0,0133763	0,0937231	0,09372277	1	2	1	1	2	2	1	0	434	931
1	1	44	8	0	11	1	1	0,0133772	0,01338937	0,09370409	0,09372537	1	2	0	2	2	2	1	0	544	932
1	1	44	9	0	11	1	1	0,01343156	0,0134301	0,09364404	0,09372252	1	2	1	2	2	2	1	0	405	933
1	1	44	10	0	11	1	1	0,01337674	0,01338882	0,0937053	0,09372896	1	1	2	0	1	1	1	0	348	934
1	1	44	11	0	11	1	1	0,01340504	0,01339415	0,09371063	0,09371554	1	1	2	1	1	1	1	0	395	935
1	1	44	12	0	11	1	1	0,01338256	0,01339821	0,0937184	0,09371207	1	1	0	1	1	1	1	0	349	936
1	1	44	13	0	11	1	1	0,01339106	0,01340334	0,09370784	0,09372785	1	1	0	2	1	1	1	0	451	937
1	1	44	14	0	11	1	1	0,01337846	0,01340522	0,09371948	0,09369786	1	1	3	1	1	1	1	0	391	938
1	1	44	15	0	11	1	1	0,01341163	0,01337228	0,09372121	0,09370831	1	2	1	0	2	2	1	0	420	939
1	1	44	16	0	11	1	1	0,01338488	0,01338293	0,09373021	0,09370436	1	1	3	2	1	1	1	0	346	940
1	1	44	17	0	11	1	1	0,01338712	0,0133742	0,09373626	0,09371416	1	1	1	2	1	1	1	0	359	941
1	1	44	18	0	11	1	1	0,01338221	0,01338344	0,09371963	0,09372015	1	2	3	0	2	2	1	0	453	942
1	1	44	19	0	11	1	1	0,01338442	0,01347588	0,09362185	0,09372016	1	1	2	2	1	1	1	0	341	943
1	1	44	20	0	11	1	1	0,01339778	0,01337791	0,09371286	0,09371582	1	1	3	0	1	1	1	0	368	944
1	1	44	21	0	11	1	1	0,01340927	0,01335105	0,09373576	0,09372172	1	2	3	1	2	2	1	0	341	945
1	1	44	22	0	11	1	1	0,01339125	0,0133834	0,09370703	0,09369228	1	1	1	1	1	1	1	0	362	946
1	1	45	1	0	11	1	1	0,01337139	0,01338651	0,09376586	0,09369514	1	1	0	1	1	1	1	0	301	947
1	1	45	2	0	11	1	1	0,01337389	0,01339437	0,0937111	0,09371154	1	2	3	2	2	2	1	0	376	948
1	1	45	3	0	11	1	1	0,01337374	0,01337931	0,09371831	0,09370893	1	1	2	1	1	1	1	0	352	949
1	1	45	4	0	11	1	1	0,01339604	0,0133843	0,09372292	0,09371181	1	1	2	2	1	1	1	0	313	950
1	1	45	5	0	11	1	1	0,01338398	0,01336997	0,09373355	0,09371764	1	2	3	0	2	2	1	0	391	951
1	1	45	6	0	11	1	1	0,01339386	0,0133833	0,09370604	0,09372049	1	1	3	0	1	1	1	0	348	952
1	1	45	7	0	11	1	1	0,01339308	0,01339708	0,09371216	0,09374564	1	2	3	1	2	1	0	1	293	953
1	1	45	8	0	11	1	1	0,01335696	0,01340493	0,09370591	0,09371881	1	2	1	0	2	2	1	0	413	954
1	1	45	9	0	11	1	1	0,01335263	0,01337752	0,09371713	0,09371673	1	2	2	0	2	2	1	0	360	955
1	1	45	10	0	11	1	1	0,01339634	0,0133794	0,09373062	0,09371553	1	1	3	2	1	1	1	0	375	956
1	1	45	11	0	11	1	1	0,01338692	0,01337649	0,093724	0,09370983	1	1	1	0	1	1	1	0	364	957
1	1	45	12	0	11	1	1	0,01339017	0,01338464	0,09370723	0,09372166	1	1	1	2	1	1	1	0	394	958
1	1	45	13	0	11	1	1	0,01339202	0,01339619	0,09370966	0,09374702	1	2	0	2	2	2	1	0	399	959
1	1	45	14	0	11	1	1	0,01333244	0,01340355	0,09369367	0,09370338	1	2	2	2	2	2	1	0	412	960
1	1	45	15	0	11	1	1	0,01339935	0,01342853	0,09367568	0,0937215	1	2	1	2	2	2	1	0	358	961
1	1	45	16	0	11	1	1	0,01338002	0,01339422	0,09372421	0,09369663	1	2	2	1	2	2	1	0	439	962
1	1	45	17	0	11	1	1	0,01338227	0,01346496	0,09366568	0,09372801	1	1	3	1	1	1	1	0	349	963
1	1	45	18	0	11	1	1	0,01337837	0,01346151	0,09367121	0,09369526	1	2	1	1	2	2	1	0	377	964
1	1	45	19	0	11	1	1	0,01340001	0,0134468	0,09366785	0,09371326	1	1	2	0	1	1	1	0	290	965
1	1	45	20	0	11	1	1	0,01337536	0,01343729	0,09366196	0,09369895	1	2	0	1	2	2	1	0	348	966
1	1	45	21	0	11	1	1	0,0133926	0,0134352	0,09366498	0,09371559	1	1	1	1	1	1	1	0	297	967
1	1	45	22	0	11	1	1	0,01337245	0,01339752	0,09371215	0,09372315	1	1	0	2	1	1	1	0	379	968
1	1	46	1	0	11	1	1	0,0133766	0,01339836	0,09372822	0,09372727	1	1	2	0	1	1	1	0	309	969
1	1	46	2	0	11	1	1	0,01338319	0,01339604	0,09372144	0,09370432	1	1	1	1	1	2	0	1	330	970
1	1	46	3	0	11	1	1	0,01339453	0,01340485	0,0936994	0,09373722	1	2	3	1	2	2	1	0	464	971
1	1	46	4	0	11	1	1	0,0133991	0,01339157	0,09369549	0,0937187	1	2	2	2	2	2	1	0	371	972
1	1	46	5	0	11	1	1	0,01339009	0,01339199	0,09371298	0,09359093	1	2	0	1	2	2	1	0	347	973
1	1	46	6	0	11	1	1	0,0133914	0,01339366	0,09373846	0,09369123	1	1	3	2	1	1	1	0	345	974
1	1	46	7	0	11	1	1	0,01336354	0,0133941	0,09373591	0,0937258	1	1	3	1	1	1	1	0	371	975
1	1	46	8	0	11	1	1	0,01338508	0,01339544	0,09371589	0,0937081	1	1	0	2	1	1	1	0	395	976
1	1	46	9	0	11	1	1	0,0133901	0,01338451	0,09372311	0,09371359	1	2	1	2	2	2	1	0	365	977
1	1	46	10	0	11	1	1	0,01337921	0,01338599	0,0937118	0,0936949	1	2	3	0	2	2	1	0	418	978
1	1	46	11	0	11	1	1	0,01338725	0,01337769	0,09372888	0,09372243	1	2	1	1	2	2	1	0	440	979
1	1	46	12	0	11	1	1	0,01337603	0,01340109	0,09370704	0,09371568	1	1	3	0	1	1	1	0	354	980
1	1	46	13	0	11	1	1	0,01336964	0,01335912	0,09372133	0,09372913	1	1	2	2	1	1	1	0	363	981
1	1	46	14	0	11	1	1	0,01338759	0,01338772	0,09370603	0,09370417	1	2	2	0	2	2	1	0	456	982
1	1	46	15	0	11	1	1	0,01339165	0,01339885	0,09370466	0,09372243	1	2	2	1	2	1	0	1	301	983
1	1	46	16	0	11	1	1	0,01336134	0,0133827	0,09371974	0,09369434	1	1	1	0	1	1	1	0	361	984
1	1	46	17	0	11	1	1	0,01338666	0,01337826	0,09372772	0,09368341	1	2	3	2	2	2	1	0	341	985
1	1	46	18	0	11	1	1	0,01337461	0,01339882	0,09370952	0,09371325	1	1	0	1	1	1	1	0	250	986
1	1	46	19	0	11	1	1	0,01338459	0,01336976	0,0937173	0,09372535	1	1	1	2	1	1	1	0	358	987
1	1	46	20	0	11	1	1	0,01338669	0,01338592	0,09370906	0,09369616	1	1	2	1	1	1	1	0	357	988
1	1	46	21	0	11	1	1	0,01339187	0,01337583	0,09373138	0,09372271	1	2	0	2	2	2	1	0	395	989
1	1	46	22	0	11	1	1	0,01338638	0,01341299	0,09369774	0,09372011	1	2	1	0	2	2	1	0	432	990
1	1	47	1	0	11	1	1	0,01338062	0,01339153	0,09371912	0,09372325	1	2	0	1	2	2	1	0	230	991
1	1	47	2	0	11	1	1	0,01339251	0,01343264	0,09366167	0,09372368	1	1	0	2	1	1	1	0	331	992
1	1	47	3	0	11	1	1	0,01338269	0,0133795	0,09370777	0,0937313	1	1	1	0	1	1	1	0	361	993
1	1	47	4	0	11	1	1	0,01343426	0,0133397	0,0937069	0,09371412	1	1	3	1	1	1	1	0	382	994
1	1	47	5	0	11	1	1	0,01339318	0,01337498	0,09372564	0,09372541	1	1	2	2	1	1	1	0	410	995
1	1	47	6	0	11	1	1	0,01338185	0,0134008	0,09371692	0,0937075	1	2	3	2	2	2	1	0	328	996
1	1	47	7	0	11	1	1	0,01339956	0,01338394	0,09371916	0,09372816	1	1	3	2	1	1	1	0	373	997
1	1	47	8	0	11	1	1	0,01339448	0,01339644	0,09370291	0,09370485	1	2	2	1	2	2	1	0	387	998
1	1	47	9	0	11	1	1	0,01340767	0,01338501	0,09373528	0,09371242	1	2	2	0	2	2	1	0	464	999
1	1	47	10	0	11	1	1	0,01338718	0,01339279	0,09371694	0,09370831	1	1	1	1	1	1	1	0	373	1000
1	1	47	11	0	11	1	1	0,01339469	0,01338654	0,09372573	0,09373008	1	1	2	0	1	1	1	0	410	1001
1	1	47	12	0	11	1	1	0,01334603	0,013459	0,09366429	0,09369958	1	1	2	1	1	1	1	0	400	1002
1	1	47	13	0	11	1	1	0,01339924	0,01338077	0,09372707	0,09370939	1	1	0	1	1	1	1	0	324	1003
1	1	47	14	0	11	1	1	0,01336938	0,01343834	0,09367716	0,09369855	1	2	3	1	2	2	1	0	469	1004
1	1	47	15	0	11	1	1	0,01338018	0,01338376	0,09373445	0,09371912	1	2	3	0	2	2	1	0	431	1005
1	1	47	16	0	11	1	1	0,01335007	0,01339966	0,09372202	0,09371361	1	2	1	1	2	1	0	1	288	1006
1	1	47	17	0	11	1	1	0,01339263	0,01338534	0,09372498	0,09372616	1	1	1	2	1	1	1	0	303	1007
1	1	47	18	0	11	1	1	0,01338203	0,01340941	0,09371165	0,09370362	1	2	2	2	2	2	1	0	347	1008
1	1	47	19	0	11	1	1	0,01340338	0,01337969	0,09372724	0,09371738	1	2	1	2	2	2	1	0	375	1009
1	1	47	20	0	11	1	1	0,01337128	0,01343383	0,09370404	0,09369839	1	1	3	0	1	1	1	0	415	1010
1	1	47	21	0	11	1	1	0,01337945	0,01338877	0,09373074	0,09371697	1	2	0	2	2	1	0	1	269	1011
1	1	47	22	0	11	1	1	0,01339522	0,01338435	0,09371767	0,09370826	1	2	1	0	2	2	1	0	328	1012
1	1	48	1	0	11	1	1	0,01340018	0,0133787	0,09371203	0,09371465	1	2	2	2	2	2	1	0	332	1013
1	1	48	2	0	11	1	1	0,01339215	0,01338556	0,09370868	0,09372445	1	1	0	1	1	1	1	0	281	1014
1	1	48	3	0	11	1	1	0,01340094	0,0133901	0,09371366	0,09375775	1	1	3	2	1	1	1	0	438	1015
1	1	48	4	0	11	1	1	0,01339999	0,01338594	0,09370669	0,0937469	1	2	2	0	2	2	1	0	340	1016
1	1	48	5	0	11	1	1	0,0134058	0,01339078	0,09372393	0,09371381	1	1	2	2	1	1	1	0	313	1017
1	1	48	6	0	11	1	1	0,01338385	0,01346368	0,09365367	0,09375626	1	2	3	2	2	2	1	0	346	1018
1	1	48	7	0	11	1	1	0,01337823	0,01339606	0,09373716	0,09372225	1	1	1	1	1	1	1	0	323	1019
1	1	48	8	0	11	1	1	0,01342314	0,01336916	0,09375413	0,09369287	1	2	0	1	2	2	1	0	232	1020
1	1	48	9	0	11	1	1	0,01339129	0,0133853	0,09373702	0,09372401	1	2	1	2	2	2	1	0	438	1021
1	1	48	10	0	11	1	1	0,01338401	0,01338396	0,09372152	0,09370397	1	2	1	1	2	1	0	1	283	1022
1	1	48	11	0	11	1	1	0,01340579	0,01340286	0,09370313	0,09371575	1	1	1	2	1	1	1	0	310	1023
1	1	48	12	0	11	1	1	0,01337478	0,0134028	0,093715	0,0932254	1	1	2	0	1	1	1	0	427	1024
1	1	48	13	0	11	1	1	0,01337843	0,01340988	0,09371027	0,0937191	1	2	2	1	2	2	1	0	408	1025
1	1	48	14	0	11	1	1	0,01341981	0,01337188	0,09376409	0,0937071	1	1	2	1	1	1	1	0	366	1026
1	1	48	15	0	11	1	1	0,01339718	0,01338569	0,09373913	0,09371462	1	2	0	2	2	2	1	0	395	1027
1	1	48	16	0	11	1	1	0,01338143	0,01338638	0,09371996	0,09370625	1	1	0	2	1	1	1	0	377	1028
1	1	48	17	0	11	1	1	0,0133768	0,01338048	0,09374044	0,09372517	1	1	3	1	1	1	1	0	387	1029
1	1	48	18	0	11	1	1	0,01337161	0,01341922	0,09369465	0,09371542	1	1	3	0	1	1	1	0	395	1030
1	1	48	19	0	11	1	1	0,0131146	0,01344541	0,09365113	0,09372727	1	2	1	0	2	2	1	0	400	1031
1	1	48	20	0	11	1	1	0,01339511	0,01338809	0,09370435	0,09370091	1	1	1	0	1	1	1	0	318	1032
1	1	48	21	0	11	1	1	0,01336752	0,01336062	0,09373356	0,09373882	1	2	3	1	2	2	1	0	379	1033
1	1	48	22	0	11	1	1	0,01338703	0,01338955	0,09370495	0,09372193	1	2	3	0	2	2	1	0	489	1034
1	1	49	1	0	11	1	1	0,01337799	0,01339708	0,09372543	0,09371719	1	2	2	1	2	2	1	0	373	1035
1	1	49	2	0	11	1	1	0,01337561	0,0133921	0,0937111	0,09372091	1	1	0	1	1	1	1	0	218	1036
1	1	49	3	0	11	1	1	0,01338051	0,01338182	0,09376167	0,09371557	1	1	1	2	1	1	1	0	315	1037
1	1	49	4	0	11	1	1	0,01339626	0,0133815	0,09371038	0,09371484	1	1	3	2	1	1	1	0	389	1038
1	1	49	5	0	11	1	1	0,01338659	0,01337295	0,09372485	0,09372598	1	1	1	1	1	1	1	0	498	1039
1	1	49	6	0	11	1	1	0,01339058	0,01338562	0,09370567	0,09372086	1	2	0	1	2	2	1	0	247	1040
1	1	49	7	0	11	1	1	0,01338037	0,01339635	0,09371492	0,09374441	1	1	0	2	1	2	0	1	240	1041
1	1	49	8	0	11	1	1	0,01336688	0,01340151	0,09370766	0,093724	1	2	3	1	2	2	1	0	440	1042
1	1	49	9	0	11	1	1	0,01339858	0,01336307	0,09371651	0,0937173	1	2	3	2	2	2	1	0	383	1043
1	1	49	10	0	11	1	1	0,01339559	0,01338273	0,09370965	0,09371251	1	1	3	1	1	1	1	0	394	1044
1	1	49	11	0	11	1	1	0,01338848	0,01336865	0,09372977	0,09372218	1	2	0	2	2	2	1	0	480	1045
1	1	49	12	0	11	1	1	0,01339147	0,01339407	0,09369693	0,09372016	1	2	1	1	2	2	1	0	421	1046
1	1	49	13	0	11	1	1	0,01337512	0,01339425	0,09371729	0,09373125	1	2	1	2	2	2	1	0	391	1047
1	1	49	14	0	11	1	1	0,01338625	0,01340024	0,09369058	0,09366279	1	1	2	2	1	1	1	0	376	1048
1	1	49	15	0	11	1	1	0,01339859	0,0133877	0,09371726	0,09371982	1	2	2	0	2	2	1	0	405	1049
1	1	49	16	0	11	1	1	0,01339706	0,0133951	0,09371244	0,09371089	1	1	3	0	1	1	1	0	393	1050
1	1	49	17	0	11	1	1	0,01338757	0,01339364	0,09373833	0,09372926	1	2	3	0	2	2	1	0	417	1051
1	1	49	18	0	11	1	1	0,01336873	0,01344499	0,09367255	0,09369415	1	2	1	0	2	2	1	0	415	1052
1	1	49	19	0	11	1	1	0,01339153	0,01343159	0,09371046	0,09370928	1	1	2	0	1	1	1	0	367	1053
1	1	49	20	0	11	1	1	0,0133687	0,01338721	0,09372659	0,0936966	1	2	2	2	2	2	1	0	407	1054
1	1	49	21	0	11	1	1	0,0133925	0,0133716	0,09373227	0,09372275	1	1	2	1	1	1	1	0	301	1055
1	1	49	22	0	11	1	1	0,01337567	0,01340029	0,09370742	0,09372748	1	1	1	0	1	1	1	0	409	1056
1	1	50	1	0	11	1	1	0,01339553	0,01338938	0,09372095	0,09372982	1	1	0	0	1	1	1	0	374	1057
1	1	50	2	0	11	1	1	0,01337844	0,01340262	0,09371336	0,093726	1	1	0	0	1	1	1	0	364	1058
1	1	50	3	0	11	1	1	0,01339422	0,01339273	0,09373231	0,09371961	1	2	0	0	2	1	0	1	337	1059
1	1	50	4	0	11	1	1	0,01339157	0,01339966	0,09369501	0,09370446	1	1	0	0	1	1	1	0	358	1060
1	1	50	5	0	11	1	1	0,01339988	0,01338661	0,09371508	0,09372942	1	2	0	0	2	2	1	0	297	1061
1	1	50	6	0	11	1	1	0,01338352	0,01339722	0,09372338	0,09370497	1	2	0	0	2	2	1	0	381	1062
1	1	50	7	0	11	1	1	0,0133908	0,01338163	0,0937393	0,09373395	1	2	0	0	2	2	1	0	384	1063
1	1	50	8	0	11	1	1	0,01337572	0,01339919	0,09371265	0,09370676	1	2	0	0	2	2	1	0	394	1064
1	1	50	9	0	11	1	1	0,01340697	0,01337511	0,093751	0,09379029	1	1	0	0	1	1	1	0	384	1065
1	1	50	10	0	11	1	1	0,01336289	0,01340279	0,09370434	0,09369076	1	1	0	0	1	1	1	0	443	1066
1	1	50	11	0	11	1	1	0,01338992	0,01338502	0,09372117	0,09370464	1	1	0	0	1	1	1	0	392	1067
1	1	50	12	0	11	1	1	0,01337219	0,01339902	0,0937259	0,09371866	1	2	0	0	2	2	1	0	366	1068
1	1	50	13	0	11	1	1	0,01337822	0,0133673	0,09371296	0,09372328	1	2	0	0	2	2	1	0	356	1069
1	1	50	14	0	11	1	1	0,01338078	0,01338519	0,0937167	0,0937042	1	1	0	0	1	1	1	0	321	1070
1	1	50	15	0	11	1	1	0,01339565	0,01337707	0,09371834	0,09372244	1	1	0	0	1	1	1	0	366	1071
1	1	50	16	0	11	1	1	0,01337781	0,01340189	0,09368601	0,09373333	1	1	0	0	1	1	1	0	415	1072
1	1	50	17	0	11	1	1	0,0134017	0,01339371	0,09371317	0,09372909	1	2	0	0	2	2	1	0	408	1073
1	1	50	18	0	11	1	1	0,01339097	0,0133915	0,09370644	0,09371212	1	2	0	0	2	2	1	0	383	1074
1	1	50	19	0	11	1	1	0,01340723	0,01345033	0,09365557	0,09370845	1	1	0	0	1	1	1	0	299	1075
1	1	50	20	0	11	1	1	0,01338516	0,01344347	0,09368514	0,09370841	1	2	0	0	2	2	1	0	320	1076
1	1	50	21	0	11	1	1	0,01338953	0,01345819	0,09365186	0,09372338	1	2	0	0	2	2	1	0	342	1077
1	1	50	22	0	11	1	1	0,01339035	0,01340385	0,09370956	0,09370051	1	1	0	0	1	1	1	0	294	1078
1	1	51	1	0	11	1	1	0,01339269	0,01338879	0,09371295	0,093718	1	2	3	1	2	2	1	0	407	1079
1	1	51	2	0	11	1	1	0,01338235	0,01339768	0,09371305	0,09370963	1	2	1	1	2	2	1	0	431	1080
1	1	51	3	0	11	1	1	0,01344405	0,01335056	0,0937153	0,09371675	1	1	3	2	1	1	1	0	313	1081
1	1	51	4	0	11	1	1	0,01337934	0,01340195	0,09373285	0,0937177	1	1	2	1	1	1	1	0	414	1082
1	1	51	5	0	11	1	1	0,01341855	0,01336634	0,09371807	0,09371646	1	2	2	1	2	2	1	0	367	1083
1	1	51	6	0	11	1	1	0,01338304	0,01340639	0,09371377	0,09369983	1	2	0	2	2	2	1	0	400	1084
1	1	51	7	0	11	1	1	0,01339831	0,01339059	0,09371902	0,09371329	1	2	3	0	2	2	1	0	406	1085
1	1	51	8	0	11	1	1	0,01337299	0,01338863	0,09372441	0,09370251	1	1	1	2	1	1	1	0	307	1086
1	1	51	9	0	11	1	1	0,01337856	0,01338762	0,09373357	0,09371615	1	2	0	1	2	2	1	0	344	1087
1	1	51	10	0	11	1	1	0,01336889	0,01339432	0,09371582	0,0937393	1	1	2	0	1	1	1	0	294	1088
1	1	51	11	0	11	1	1	0,01338329	0,0133813	0,09371183	0,09372134	1	1	0	2	1	1	1	0	368	1089
1	1	51	12	0	11	1	1	0,01340197	0,01337325	0,09371194	0,09375646	1	1	1	1	1	1	1	0	374	1090
1	1	51	13	0	11	1	1	0,01340607	0,01336133	0,09372781	0,09372396	1	1	0	1	1	1	1	0	401	1091
1	1	51	14	0	11	1	1	0,01340582	0,01337347	0,09370151	0,0937292	1	1	3	0	1	1	1	0	395	1092
1	1	51	15	0	11	1	1	0,01338408	0,01345939	0,09365435	0,09371804	1	1	2	2	1	1	1	0	400	1093
1	1	51	16	0	11	1	1	0,01339728	0,01341633	0,09367277	0,09370954	1	2	1	0	2	2	1	0	437	1094
1	1	51	17	0	11	1	1	0,01339214	0,01338551	0,09372289	0,09373086	1	2	3	2	2	2	1	0	467	1095
1	1	51	18	0	11	1	1	0,0133904	0,01338906	0,09372524	0,09372097	1	1	1	0	1	1	1	0	320	1096
1	1	51	19	0	11	1	1	0,01335712	0,01339626	0,093722	0,09373682	1	1	3	1	1	1	1	0	309	1097
1	1	51	20	0	11	1	1	0,01337608	0,01339906	0,09371573	0,09370458	1	2	2	2	2	2	1	0	402	1098
1	1	51	21	0	11	1	1	0,01339636	0,01338966	0,09371764	0,0937159	1	2	2	0	2	2	1	0	407	1099
1	1	51	22	0	11	1	1	0,01336749	0,01339227	0,09371351	0,0937112	1	2	1	2	2	2	1	0	376	1100
1	1	52	1	0	11	1	1	0,01340574	0,01338102	0,09371669	0,09372238	1	2	0	1	2	2	1	0	383	1101
1	1	52	2	0	11	1	1	0,01340049	0,01337852	0,09372094	0,09370713	1	1	3	0	1	1	1	0	316	1102
1	1	52	3	0	11	1	1	0,01338996	0,01339948	0,093718	0,09372562	1	1	1	1	1	2	0	1	333	1103
1	1	52	4	0	11	1	1	0,01338812	0,01338791	0,09374136	0,09372699	1	2	0	2	2	2	1	0	397	1104
1	1	52	5	0	11	1	1	0,0133945	0,01339009	0,09371418	0,09373465	1	1	0	1	1	1	1	0	322	1105
1	1	52	6	0	11	1	1	0,01339169	0,0133986	0,093697	0,09371034	1	2	3	1	2	2	1	0	468	1106
1	1	52	7	0	11	1	1	0,01341063	0,01337789	0,09371498	0,09372218	1	2	2	2	2	2	1	0	309	1107
1	1	52	8	0	11	1	1	0,0133678	0,01339821	0,09373133	0,09371239	1	2	2	0	2	2	1	0	412	1108
1	1	52	9	0	11	1	1	0,01338843	0,01339519	0,0937279	0,09372594	1	2	1	1	2	1	0	1	311	1109
1	1	52	10	0	11	1	1	0,01338909	0,01338607	0,09370585	0,09372033	1	1	0	2	1	1	1	0	418	1110
1	1	52	11	0	11	1	1	0,0133996	0,01338995	0,09371325	0,09377744	1	1	3	1	1	1	1	0	416	1111
1	1	52	12	0	11	1	1	0,0133845	0,01340092	0,0936975	0,09371124	1	1	3	2	1	1	1	0	389	1112
1	1	52	13	0	11	1	1	0,01340525	0,01338341	0,09371467	0,09372408	1	1	1	2	1	1	1	0	306	1113
1	1	52	14	0	11	1	1	0,01337371	0,01339725	0,09374935	0,09371262	1	2	2	1	2	2	1	0	475	1114
1	1	52	15	0	11	1	1	0,01338897	0,01347794	0,09365523	0,09372698	1	2	1	0	2	2	1	0	532	1115
1	1	52	16	0	11	1	1	0,0133565	0,0134626	0,09367987	0,09370432	1	2	3	0	2	2	1	0	410	1116
1	1	52	17	0	11	1	1	0,01339262	0,01339744	0,09371207	0,09370663	1	1	2	2	1	1	1	0	287	1117
1	1	52	18	0	11	1	1	0,01336128	0,01338834	0,09372609	0,09369062	1	1	2	0	1	1	1	0	316	1118
1	1	52	19	0	11	1	1	0,01339242	0,01337144	0,09372923	0,09371544	1	2	1	2	2	2	1	0	309	1119
1	1	52	20	0	11	1	1	0,01338388	0,0133873	0,09371483	0,09371899	1	2	3	2	2	2	1	0	415	1120
1	1	52	21	0	11	1	1	0,01339051	0,01337791	0,09370811	0,0937185	1	1	2	1	1	1	1	0	394	1121
1	1	52	22	0	11	1	1	0,01333677	0,01338832	0,09370983	0,09371397	1	1	1	0	1	1	1	0	401	1122
1	1	53	1	0	11	1	1	0,01337997	0,01337979	0,09372801	0,09374523	1	1	1	1	1	1	1	0	377	1123
1	1	53	2	0	11	1	1	0,01337058	0,01339443	0,09371327	0,09369554	1	2	3	1	2	2	1	0	374	1124
1	1	53	3	0	11	1	1	0,01340549	0,0133595	0,09372843	0,09371936	1	1	3	1	1	1	1	0	316	1125
1	1	53	4	0	11	1	1	0,01336727	0,01342589	0,09368514	0,09371239	1	1	2	0	1	0	0	1	800	1126
